Log Mode	Log Freq	Timestamp	AccX	AccY	AccZ	GyroX	GyroY	GyroZ	MagnX	MagnY	MagnZ	qw	qi	qj	qk
5	200	1650449513	519.72	34.404	770.796	25.60976	1.829268	-37.07317	-475	-144	-568	0.9657159	0.02002014	-0.2588274	-0.000244148
5	200	1650449513	490.44	40.26	796.416	47.19512	15.12195	-27.68293	-475	-144	-568	0.9601349	0.02624592	-0.2782983	-0.001464888
5	200	1650449513	508.74	66.612	789.828	51.46342	7.682927	-40.73171	-475	-150	-571	0.957737	0.03604236	-0.2853481	-0.004150517
5	200	1650449513	591.456	103.212	879.132	57.43903	-3.292683	-44.14634	-475	-150	-571	0.9565034	0.03933835	-0.2890103	-0.005157628
5	200	1650449513	485.316	109.068	824.964	57.80488	-9.756098	-43.90244	-476	-153	-573	0.9569074	0.05014191	-0.2858974	-0.008758812
5	200	1650449513	395.28	97.356	798.612	56.82927	-20.4878	-43.90244	-476	-153	-573	0.9581856	0.0553911	-0.2805262	-0.01083407
5	200	1650449513	469.212	116.388	828.624	51.95122	-54.2683	-44.39024	-480	-160	-573	0.9579014	0.06054872	-0.280343	-0.01290933
5	200	1650449513	586.332	128.1	985.272	48.04878	-116.8293	-50.60976	-480	-160	-573	0.9571154	0.0629902	-0.2824183	-0.01422163
5	200	1650449513	431.88	174.948	800.076	45.97561	-137.6829	-55.4878	-484	-167	-574	0.9511217	0.07333598	-0.2994171	-0.01840266
5	200	1650449513	355.752	184.464	786.9	45.12195	-140.1219	-50.73171	-484	-167	-574	0.9522945	0.08053835	-0.2934965	-0.02255318
5	200	1650449513	529.968	347.7	682.956	50	-137.561	-55.36586	-493	-172	-569	0.9497571	0.08890042	-0.2988983	-0.02679525
5	200	1650449513	583.404	232.776	789.096	55.60976	-120.8537	-45.60976	-493	-172	-569	0.9465666	0.09631643	-0.3063754	-0.02948088
5	200	1650449513	516.06	271.572	668.316	52.31707	-107.9268	-44.39024	-504	-178	-565	0.9431819	0.1059908	-0.3131504	-0.03332621
5	200	1650449513	607.56	315.492	728.34	44.63415	-90.2439	-36.46342	-504	-178	-565	0.9396508	0.112949	-0.3209937	-0.03552355
5	200	1650449513	665.388	331.596	737.856	36.21951	-76.46342	-27.56098	-510	-184	-561	0.9349485	0.1214942	-0.3311564	-0.03802607
5	200	1650449513	609.756	298.656	748.836	29.02439	-75	-23.53659	-510	-184	-561	0.9326425	0.1262856	-0.3356426	-0.03967406
5	200	1650449513	589.992	284.016	721.752	25.2439	-70.36585	-19.63415	-517	-189	-558	0.929603	0.1315958	-0.3417463	-0.04159673
5	200	1650449513	620.736	275.964	685.884	23.65854	-66.82927	-17.19512	-517	-189	-558	0.9274784	0.1341899	-0.3463851	-0.04235969
5	200	1650449513	696.864	427.488	818.376	20.85366	-67.56097	-19.87805	-521	-193	-555	0.9238188	0.1375164	-0.3546556	-0.04321421
5	200	1650449513	662.46	344.772	593.652	14.5122	-62.80488	-14.7561	-521	-193	-555	0.9192529	0.1427961	-0.3641774	-0.04425184
5	200	1650449513	652.212	259.86	689.544	18.17073	-70.2439	-15.48781	-525	-196	-554	0.9178388	0.1431013	-0.3675344	-0.04486221
5	200	1650449513	663.192	319.884	615.612	17.07317	-72.19512	-14.02439	-525	-196	-554	0.9151301	0.1458174	-0.3730888	-0.04559465
5	200	1650449513	669.048	299.388	637.572	15.48781	-74.02439	-15.73171	-529	-197	-551	0.912092	0.1488388	-0.3791314	-0.04684591
5	200	1650449513	655.14	234.972	638.304	18.90244	-68.90244	-19.5122	-529	-197	-551	0.9103575	0.1480758	-0.3836177	-0.04647969
5	200	1650449513	686.616	234.972	552.66	30.48781	-57.80488	-28.04878	-534	-199	-548	0.9074179	0.1466414	-0.3911862	-0.04541154
5	200	1650449513	685.884	228.384	589.26	38.41463	-50.85366	-35	-534	-199	-548	0.9050404	0.1460311	-0.3969848	-0.04449599
5	200	1650449513	647.82	314.028	616.344	38.41463	-47.31707	-35.12195	-538	-203	-545	0.9028887	0.1487167	-0.4007691	-0.04538102
5	200	1650449513	634.644	318.42	580.476	30.97561	-44.2683	-30.85366	-538	-203	-545	0.9011384	0.1529588	-0.4029053	-0.04712057
5	200	1650449513	647.82	350.628	594.384	21.09756	-37.80488	-27.68293	-542	-206	-543	0.8987496	0.1588794	-0.4056215	-0.04977569
5	200	1650449513	671.244	681.492	252.54	1.829268	-9.512196	-4.756098	-542	-206	-543	0.8925864	0.1725516	-0.4129459	-0.05468916
5	200	1650449513	776.652	203.496	652.212	-17.80488	-0.4878049	-5	-545	-209	-542	0.8904974	0.1662343	-0.4205146	-0.05047762
5	200	1650449513	666.852	349.164	639.768	-20.2439	-11.21951	-11.21951	-545	-209	-542	0.8923973	0.1641896	-0.4172186	-0.05096592
5	200	1650449513	641.964	330.132	565.104	-24.7561	-6.95122	-12.31707	-545	-210	-542	0.8925619	0.1655629	-0.4160283	-0.05331584
5	200	1650449513	670.512	336.72	568.032	-29.02439	-1.829268	-8.658537	-548	-210	-542	0.8916725	0.1676992	-0.4168523	-0.05505538
5	200	1650449513	704.184	330.132	580.476	-31.09756	3.04878	-13.41463	-548	-210	-542	0.8911133	0.166448	-0.4184699	-0.05563525
5	200	1650449513	697.596	374.052	547.536	-37.68293	10.36585	-9.756098	-548	-210	-541	0.890009	0.1679434	-0.4200263	-0.05706962
5	200	1650449513	697.596	338.184	631.716	-45.36586	22.31707	-7.682927	-548	-210	-541	0.8901308	0.1674245	-0.4197821	-0.05847346
5	200	1650449513	710.772	325.74	611.952	-47.56098	29.39025	-9.512196	-545	-208	-542	0.8907148	0.1660207	-0.4190191	-0.05905332
5	200	1650449513	715.896	341.112	633.18	-50.60976	38.41463	-8.414635	-545	-208	-542	0.8919533	0.1639149	-0.4170659	-0.06006043
5	200	1650449513	701.988	294.996	681.492	-51.46342	41.95122	-9.512196	-544	-207	-543	0.8935294	0.1607105	-0.4149297	-0.06009095
5	200	1650449513	673.44	300.12	670.512	-56.70732	46.95122	-8.04878	-544	-207	-543	0.8963002	0.1575671	-0.4099551	-0.06128117
5	200	1650449513	691.74	292.8	679.296	-60.97561	50.36586	-7.560976	-541	-204	-543	0.897848	0.1554308	-0.4072695	-0.06198309
5	200	1650449513	699.792	271.572	660.264	-65.2439	54.63415	-8.170732	-541	-204	-543	0.9001339	0.1506699	-0.4039429	-0.06234931
5	200	1650449513	685.884	289.14	691.74	-65.48781	55.85366	-7.804878	-539	-201	-546	0.9018046	0.1476485	-0.4012574	-0.06277657
5	200	1650449513	665.388	243.024	669.048	-62.92683	58.04878	-4.268293	-539	-201	-546	0.9033833	0.1431013	-0.3993347	-0.06286813
5	200	1650449513	662.46	228.384	656.604	-60.60976	57.43903	-3.292683	-536	-199	-547	0.904792	0.1387371	-0.3977782	-0.06225776
5	200	1650449513	672.708	236.436	634.644	-57.92683	53.78049	-4.02439	-536	-199	-547	0.9057007	0.1337016	-0.397534	-0.06161686
5	200	1650449513	660.996	182.268	613.416	-53.78049	50.12195	-4.512195	-533	-195	-548	0.906615	0.128666	-0.39729	-0.06045717
5	200	1650449513	671.244	172.752	628.056	-45.2439	45.60976	-4.878049	-533	-195	-548	0.9074439	0.1218299	-0.3978088	-0.05874813
5	200	1650449513	606.096	221.796	672.708	-41.70732	37.56098	-5.487805	-531	-193	-549	0.9094787	0.1189306	-0.3939939	-0.05893124
5	200	1650449513	607.56	218.136	732	-37.68293	33.53659	-5.365854	-531	-193	-549	0.9121372	0.1168554	-0.3882564	-0.06006042
5	200	1650449513	598.776	232.776	696.864	-35	33.78049	-7.195122	-528	-191	-550	0.9140021	0.115482	-0.3841365	-0.06085391
5	200	1650449513	600.972	210.816	690.276	-32.31707	33.04878	-8.658537	-528	-191	-550	0.9169148	0.1129185	-0.3777581	-0.06176946
5	200	1650449513	613.416	209.352	716.628	-32.31707	31.70732	-8.780488	-527	-190	-550	0.9180532	0.1116367	-0.3752861	-0.06225776
5	200	1650449513	581.208	188.124	729.804	-30.97561	28.17073	-7.804878	-527	-190	-550	0.9208446	0.1084933	-0.3692129	-0.06289865
5	200	1650449513	633.18	191.784	779.58	-29.5122	25	-8.04878	-525	-190	-552	0.9218002	0.106418	-0.3674123	-0.0629902
5	200	1650449513	639.768	215.208	748.104	-28.65854	22.68293	-7.926829	-525	-190	-552	0.9231007	0.10477	-0.3644825	-0.06372264
5	200	1650449513	617.076	217.404	777.384	-25.97561	21.09756	-8.04878	-525	-188	-553	0.9242195	0.1034883	-0.361919	-0.06421094
5	200	1650449513	638.304	204.228	794.952	-21.82927	19.02439	-7.317073	-525	-188	-553	0.9259413	0.10065	-0.3582568	-0.0644551
5	200	1650449513	628.056	245.952	823.5	-19.14634	18.53659	-6.829268	-523	-187	-552	0.9268467	0.1004364	-0.3558458	-0.0651265
5	200	1650449513	607.56	233.508	814.716	-13.53659	19.39024	-5.121951	-523	-187	-552	0.9276767	0.09976501	-0.3537706	-0.06564531
5	200	1650449513	583.404	237.168	830.088	-10	19.87805	-3.902439	-523	-188	-553	0.9289641	0.09976501	-0.3502609	-0.06625568
5	200	1650449513	576.084	245.952	817.644	-4.02439	18.90244	-3.536585	-523	-188	-553	0.930935	0.09997865	-0.3447676	-0.06707969
5	200	1650449513	591.456	227.652	813.252	-0.1219512	18.04878	-3.04878	-522	-187	-554	0.9321259	0.09994812	-0.3414716	-0.0674459
5	200	1650449513	614.88	228.384	843.996	3.292683	16.58537	-2.073171	-522	-187	-554	0.9332432	0.1002533	-0.3382672	-0.06769006
5	200	1650449513	585.6	223.26	824.232	5.97561	14.7561	-1.463415	-521	-188	-555	0.9338411	0.1004975	-0.3365276	-0.06775109
5	200	1650449513	595.848	219.6	798.612	10.36585	11.95122	0.3658537	-521	-188	-555	0.9347281	0.1009247	-0.3339336	-0.06772058
5	200	1650449513	613.416	213.744	811.788	13.90244	9.268293	1.95122	-521	-189	-555	0.9352182	0.1006806	-0.3327128	-0.06732383
5	200	1650449513	589.26	218.868	794.22	16.58537	6.219512	5.365854	-521	-189	-555	0.9354521	0.1012299	-0.3320109	-0.06671346
5	200	1650449513	584.136	229.116	783.972	15.97561	6.219512	6.829268	-520	-189	-558	0.9354022	0.1018098	-0.3320719	-0.06622517
5	200	1650449513	554.124	224.724	777.384	11.58537	8.170732	7.317073	-520	-189	-558	0.9357468	0.103885	-0.3304544	-0.06622516
5	200	1650449513	584.136	243.756	795.684	9.878049	10.36585	7.682927	-519	-191	-557	0.9360298	0.1042817	-0.3295999	-0.06585895
5	200	1650449513	562.176	243.756	788.364	6.707317	11.58537	7.439024	-519	-191	-557	0.9364229	0.1057466	-0.3280435	-0.06570635
5	200	1650449513	562.908	254.736	798.612	4.512195	12.31707	7.560976	-520	-190	-559	0.9368307	0.1073336	-0.3263039	-0.06598102
5	200	1650449513	587.064	261.324	820.572	2.317073	13.41463	7.804878	-520	-190	-559	0.9367774	0.1083712	-0.3261818	-0.06564531
5	200	1650449513	561.444	238.632	802.272	0.9756098	15.12195	8.658537	-519	-191	-559	0.9373184	0.1088595	-0.3244728	-0.06558428
5	200	1650449513	576.084	231.312	795.684	-0.9756098	16.09756	8.658537	-517	-191	-560	0.937246	0.1095004	-0.3245643	-0.06509598
5	200	1650449513	602.436	250.344	777.384	-1.95122	15	7.804878	-517	-191	-560	0.9373224	0.1092257	-0.3245338	-0.06460768
5	200	1650449513	604.632	237.168	783.972	-2.926829	10.85366	5.365854	-517	-191	-560	0.9368534	0.1098666	-0.3257546	-0.06418043
5	200	1650449513	608.292	229.848	796.416	-3.536585	6.585366	3.780488	-517	-191	-560	0.9367036	0.1095614	-0.3263649	-0.06378368
5	200	1650449513	605.364	201.3	797.148	-2.682927	0.4878049	2.073171	-516	-190	-561	0.9365375	0.108005	-0.3275247	-0.06292918
5	200	1650449513	614.148	234.972	786.9	-2.804878	-1.829268	1.95122	-516	-190	-561	0.9363973	0.107242	-0.3282571	-0.06250191
5	200	1650449513	604.632	244.488	805.2	-2.439024	-3.902439	2.073171	-515	-191	-561	0.9363068	0.1075472	-0.3284097	-0.06253242
5	200	1650449513	614.88	238.632	786.9	-2.317073	-4.268293	1.585366	-515	-191	-561	0.9360775	0.1074862	-0.3291116	-0.06237983
5	200	1650449513	618.54	240.096	816.18	-2.926829	-4.146341	1.341463	-517	-190	-560	0.935747	0.1077609	-0.3299661	-0.06234932
5	200	1650449513	597.312	230.58	795.684	-2.682927	-4.146341	1.341463	-517	-190	-560	0.9358097	0.1076083	-0.3298441	-0.0623188
5	200	1650449513	603.9	255.468	812.52	-2.926829	-2.682927	0.9756098	-517	-189	-560	0.9358416	0.1079134	-0.3296304	-0.06244086
5	200	1650449513	606.828	249.612	784.704	-3.780488	-1.95122	0.7317073	-517	-189	-560	0.9354992	0.1086459	-0.3303324	-0.06259347
5	200	1650449513	614.88	221.064	748.104	-4.268293	-1.341463	0.8536586	-517	-191	-561	0.9350524	0.1085238	-0.3316752	-0.06237984
5	200	1650449513	609.756	254.004	783.24	-4.512195	-1.219512	1.219512	-517	-191	-561	0.9344651	0.1096225	-0.3329265	-0.06259347
5	200	1650449513	599.508	232.776	756.156	-4.02439	-1.585366	2.195122	-517	-191	-561	0.9343607	0.1093173	-0.3333537	-0.06241035
5	200	1650449513	598.044	257.664	766.404	-3.292683	-2.439024	2.682927	-517	-191	-561	0.9339316	0.110416	-0.3341471	-0.0626545
5	200	1650449513	619.272	249.612	770.796	-1.585366	-2.682927	2.926829	-517	-191	-560	0.9332838	0.1109043	-0.3358257	-0.06247139
5	200	1650449513	645.624	232.044	770.796	-1.585366	-3.414634	3.292683	-517	-191	-560	0.9326108	0.110477	-0.3379315	-0.06192205
5	200	1650449513	600.972	261.324	767.868	-1.219512	-4.756098	3.780488	-516	-190	-560	0.9320569	0.1108738	-0.3393659	-0.06170844
5	200	1650449513	610.488	234.972	754.692	-1.219512	-4.756098	3.902439	-516	-190	-560	0.93155	0.1115757	-0.3405255	-0.06170843
5	200	1650449513	611.22	221.796	777.384	-0.7317073	-4.02439	3.902439	-519	-191	-559	0.9308559	0.11124	-0.3426313	-0.06112858
5	200	1650449513	600.972	243.756	753.96	-0.6097561	-4.512195	4.268293	-519	-191	-559	0.9305983	0.1112705	-0.3433637	-0.06088442
5	200	1650449513	593.652	256.2	807.396	-0.3658537	-4.02439	4.02439	-518	-192	-563	0.9304366	0.1115757	-0.34373	-0.06073184
5	200	1650449513	606.828	276.696	734.196	-0.9756098	-3.04878	4.146341	-518	-192	-563	0.9298372	0.1131932	-0.3447676	-0.06103702
5	200	1650449513	613.416	240.096	756.888	-2.682927	-1.585366	4.268293	-519	-191	-560	0.9298339	0.1130711	-0.3448591	-0.06079286
5	200	1650449513	612.684	256.2	777.384	-4.634147	-1.585366	4.02439	-519	-191	-560	0.9298701	0.1131626	-0.3447371	-0.06076235
5	200	1650449513	629.52	236.436	796.416	-8.170732	-1.829268	3.902439	-519	-191	-559	0.9299204	0.1123691	-0.3449202	-0.06042665
5	200	1650449513	631.716	236.436	775.188	-9.390244	-2.073171	3.04878	-519	-191	-559	0.9298711	0.1123081	-0.3450728	-0.06042665
5	200	1650449513	616.344	238.632	800.808	-11.70732	-0.9756098	3.170732	-518	-192	-558	0.9302816	0.1116062	-0.3441877	-0.06045717
5	200	1650449513	609.756	239.364	766.404	-12.43902	-0.6097561	2.804878	-518	-192	-558	0.9302753	0.1115146	-0.3442183	-0.06054873
5	200	1650449513	609.756	238.632	756.156	-13.78049	0.3658537	2.682927	-519	-189	-559	0.9303506	0.1111789	-0.3440962	-0.06070131
5	200	1650449513	601.704	264.984	782.508	-14.5122	0.7317073	2.073171	-519	-189	-559	0.9304057	0.1119419	-0.3436079	-0.06122014
5	200	1650449513	613.416	224.724	772.992	-17.19512	0.2439024	2.073171	-518	-190	-558	0.9301507	0.1118809	-0.3442793	-0.06143376
5	200	1650449513	613.416	216.672	758.352	-19.02439	-0.2439024	1.829268	-518	-190	-558	0.930176	0.1110263	-0.3444929	-0.06140324
5	200	1650449513	609.756	252.54	767.136	-19.39024	-1.219512	1.585366	-520	-190	-557	0.9300448	0.1106296	-0.3449202	-0.06170844
5	200	1650449513	622.932	245.952	738.588	-18.53659	-1.585366	1.097561	-520	-190	-557	0.9298643	0.1107212	-0.3453169	-0.06204413
5	200	1650449513	609.756	239.364	757.62	-17.56098	-2.439024	0.8536586	-519	-187	-559	0.9298663	0.1097751	-0.3455916	-0.0621662
5	200	1650449513	612.684	247.416	754.692	-16.34146	-2.682927	-0.1219512	-519	-187	-559	0.9298369	0.1094394	-0.3457442	-0.06234932
5	200	1650449513	606.828	249.612	781.776	-13.78049	-2.926829	-0.1219512	-518	-187	-556	0.9300594	0.1091342	-0.3451643	-0.06277657
5	200	1650449513	609.756	243.756	739.32	-12.43902	-2.926829	-0.2439024	-518	-187	-556	0.9297435	0.1092868	-0.3459273	-0.06299021
5	200	1650449513	578.28	237.9	778.116	-10.60976	-1.707317	-0.1219512	-518	-186	-557	0.9301165	0.1099887	-0.344554	-0.06378368
5	200	1650449513	607.56	245.22	732	-9.634147	-0.4878049	0.1219512	-518	-186	-557	0.9298454	0.110416	-0.3451033	-0.06402783
5	200	1650449513	598.776	241.56	770.796	-8.536586	0.8536586	0.3658537	-519	-187	-555	0.9301949	0.1101108	-0.3442183	-0.06424146
5	200	1650449513	586.332	220.332	777.384	-8.414635	1.585366	0.9756098	-519	-187	-555	0.9303784	0.1094699	-0.3439436	-0.06414991
5	200	1650449513	609.024	223.26	789.096	-8.780488	2.439024	1.707317	-519	-187	-556	0.9309457	0.1080355	-0.342906	-0.06390576
5	200	1650449513	615.612	240.096	772.26	-8.780488	2.804878	1.585366	-519	-187	-556	0.9308307	0.1084322	-0.3430585	-0.06408887
5	200	1650449513	617.076	232.044	756.156	-8.414635	3.170732	2.073171	-519	-186	-556	0.9309854	0.1074557	-0.3429976	-0.06381421
5	200	1650449513	581.94	245.952	789.096	-8.04878	3.170732	2.439024	-519	-186	-556	0.931376	0.1076998	-0.3418073	-0.06408888
5	200	1650449513	610.488	225.456	764.94	-7.926829	3.902439	3.414634	-520	-188	-557	0.9315504	0.1071505	-0.3415326	-0.06393627
5	200	1650449513	616.344	240.096	782.508	-7.926829	4.02439	3.414634	-520	-188	-557	0.9312303	0.1067232	-0.3426008	-0.06360058
5	200	1650449513	631.716	223.992	785.436	-7.926829	5	3.170732	-519	-186	-556	0.9312808	0.1060518	-0.3427229	-0.0633259
5	200	1650449513	644.892	241.56	775.188	-8.170732	5	2.195122	-519	-186	-556	0.9309502	0.1060823	-0.3436384	-0.06317332
5	200	1650449513	624.396	218.868	786.168	-8.658537	4.634147	1.585366	-518	-185	-556	0.9308626	0.1056551	-0.3440351	-0.06302072
5	200	1650449513	627.324	242.292	797.148	-8.536586	3.658537	1.463415	-518	-185	-556	0.931074	0.1053804	-0.3435468	-0.06302071
5	200	1650449513	603.9	232.776	805.932	-9.878049	2.439024	0.9756098	-518	-185	-556	0.9313474	0.1050142	-0.3429059	-0.06308175
5	200	1650449513	633.912	249.612	734.196	-11.58537	-0.3658537	-2.073171	-518	-185	-556	0.9309854	0.1055635	-0.3436689	-0.06335642
5	200	1650449513	616.344	226.188	783.972	-11.34146	-1.707317	-4.02439	-519	-185	-557	0.9310785	0.1048921	-0.3435774	-0.06360058
5	200	1650449513	634.644	210.816	778.848	-7.682927	-1.829268	-1.463415	-519	-185	-557	0.9314147	0.1036714	-0.3430585	-0.06347849
5	200	1650449513	625.86	202.032	771.528	-1.829268	-5.853659	0.1219512	-517	-185	-556	0.9311883	0.1033357	-0.343791	-0.06338695
5	200	1650449513	592.92	208.62	757.62	-0.1219512	-9.634147	0	-517	-185	-556	0.930803	0.1030915	-0.3449507	-0.06314281
5	200	1650449513	602.436	240.096	725.412	-2.073171	-10.97561	-0.8536586	-520	-186	-556	0.9303672	0.1030915	-0.346141	-0.06305125
5	200	1650449513	628.788	233.508	713.7	-4.512195	-8.658537	-0.6097561	-520	-186	-556	0.9293475	0.1037324	-0.348674	-0.06308176
5	200	1650449513	609.024	234.972	776.652	-6.097561	-6.585366	-0.4878049	-519	-185	-554	0.9291206	0.1041597	-0.3491012	-0.06335643
5	200	1650449513	600.972	226.92	766.404	-6.585366	-5.609756	0	-519	-185	-554	0.9291741	0.1044343	-0.3488266	-0.06363109
5	200	1650449513	629.52	243.024	789.096	-10	-2.195122	0.8536586	-520	-185	-554	0.9294968	0.1044954	-0.3478805	-0.06399731
5	200	1650449513	616.344	237.9	802.272	-12.80488	0.3658537	1.585366	-521	-185	-554	0.9297882	0.1045564	-0.347026	-0.0643025
5	200	1650449513	641.232	249.612	759.084	-16.58537	4.756098	1.585366	-521	-185	-554	0.9295278	0.1049226	-0.3475448	-0.06466872
5	200	1650449513	635.376	227.652	773.724	-18.17073	6.95122	0.9756098	-520	-184	-554	0.9296003	0.1045259	-0.3474532	-0.06476028
5	200	1650449513	618.54	198.372	789.828	-17.68293	7.560976	0.2439024	-520	-184	-554	0.930047	0.1029084	-0.3467513	-0.06469925
5	200	1650449513	589.26	184.464	792.024	-9.756098	1.341463	-1.219512	-519	-184	-554	0.9308891	0.1011383	-0.3450423	-0.06451613
5	200	1650449513	617.808	214.476	765.672	-4.268293	-0.4878049	0.7317073	-519	-184	-554	0.9308878	0.1004975	-0.3452559	-0.06439406
5	200	1650449513	612.684	237.9	762.744	-3.04878	-0.3658537	1.585366	-520	-184	-553	0.930646	0.1007416	-0.3458357	-0.06439405
5	200	1650449513	600.24	210.816	734.928	-0.7317073	-0.1219512	1.707317	-520	-184	-553	0.9303002	0.1010773	-0.3466903	-0.06427198
5	200	1650449513	606.828	240.828	759.816	1.219512	0.2439024	1.585366	-520	-184	-554	0.9300913	0.1018708	-0.3469954	-0.06439405
5	200	1650449513	611.952	218.868	781.044	1.95122	0.1219512	2.682927	-520	-184	-554	0.9305551	0.1017792	-0.3458052	-0.06424146
5	200	1650449513	622.2	243.756	750.3	1.341463	0.6097561	2.804878	-519	-184	-554	0.9300129	0.1031831	-0.3468123	-0.06442457
5	200	1650449513	622.2	236.436	767.136	0.3658537	1.585366	2.804878	-519	-184	-554	0.9297984	0.1042512	-0.3470565	-0.06448561
5	200	1650449513	617.076	233.508	775.188	-0.2439024	2.073171	2.195122	-519	-184	-553	0.9298441	0.1041597	-0.3469954	-0.0643025
5	200	1650449513	614.88	256.932	784.704	-1.219512	1.707317	2.073171	-519	-184	-553	0.9297557	0.1051363	-0.3469039	-0.06448562
5	200	1650449513	612.684	213.012	770.064	-1.341463	0	2.439024	-520	-185	-554	0.9298521	0.1052278	-0.3466293	-0.06442458
5	200	1650449513	617.808	218.868	745.176	-2.073171	-2.317073	2.560976	-520	-185	-554	0.9300403	0.1050447	-0.346202	-0.0643025
5	200	1650449513	620.736	227.652	794.22	-2.317073	-3.902439	2.439024	-520	-184	-554	0.9303064	0.1043428	-0.3457442	-0.06405835
5	200	1650449513	636.108	230.58	702.72	-2.682927	-5.609756	2.439024	-520	-184	-554	0.9293173	0.1040681	-0.3485824	-0.0634785
5	200	1650449513	612.684	237.9	800.076	-3.04878	-6.707317	3.04878	-520	-185	-555	0.9296171	0.1040071	-0.3477889	-0.06353953
5	200	1650449513	607.56	221.064	798.612	-3.04878	-7.439024	2.560976	-520	-185	-555	0.9296092	0.1034272	-0.3480331	-0.06326487
5	200	1650449513	613.416	215.208	741.516	-3.292683	-7.195122	2.804878	-520	-184	-552	0.9294776	0.1029084	-0.3485824	-0.06302072
5	200	1650449513	612.684	224.724	760.548	-3.536585	-3.902439	2.317073	-520	-184	-552	0.9294261	0.1032136	-0.3486129	-0.06311228
5	200	1650449513	618.54	239.364	781.044	-4.146341	-2.682927	2.195122	-520	-185	-554	0.9295451	0.1041597	-0.3479415	-0.06350902
5	200	1650449513	630.252	244.488	778.848	-4.878049	-0.3658537	1.707317	-520	-185	-554	0.9296689	0.1048005	-0.3473617	-0.06381419
5	200	1650449513	593.652	234.972	801.54	-6.097561	1.219512	1.585366	-519	-184	-553	0.9302703	0.1043733	-0.3458663	-0.06387524
5	200	1650449513	620.004	246.684	781.776	-7.804878	3.414634	1.463415	-519	-184	-553	0.9300231	0.1048616	-0.3463546	-0.06402784
5	200	1650449513	599.508	234.972	769.332	-8.780488	4.756098	2.073171	-521	-186	-555	0.9300197	0.104709	-0.3464156	-0.06399731
5	200	1650449513	639.036	226.188	782.508	-9.512196	6.829268	2.560976	-521	-186	-555	0.9300085	0.1041292	-0.3466598	-0.06378369
5	200	1650449513	618.54	226.188	796.416	-9.878049	7.439024	2.926829	-521	-184	-553	0.9301711	0.1039765	-0.346263	-0.06381419
5	200	1650449513	619.272	243.024	765.672	-9.390244	9.634147	2.682927	-521	-184	-553	0.9301328	0.1047395	-0.3460799	-0.06411939
5	200	1650449513	613.416	234.972	807.396	-8.780488	10.36585	3.04878	-522	-184	-553	0.9301649	0.1051668	-0.3458357	-0.06427198
5	200	1650449513	646.356	232.776	789.096	-8.414635	10.97561	3.292683	-522	-184	-553	0.9305511	0.104648	-0.3449812	-0.06411938
5	200	1650449513	623.664	228.384	796.416	-8.536586	11.34146	2.926829	-520	-184	-554	0.930527	0.1048616	-0.3449812	-0.06411938
5	200	1650449513	649.284	211.548	754.692	-8.170732	11.21951	2.439024	-520	-184	-554	0.930396	0.1040071	-0.3456832	-0.06363109
5	200	1650449513	613.416	213.744	765.672	-7.560976	10	1.829268	-519	-183	-553	0.9305141	0.1031526	-0.3456832	-0.06329539
5	200	1650449513	635.376	217.404	763.476	-7.804878	6.585366	1.097561	-519	-183	-553	0.9304954	0.1024811	-0.3459883	-0.0629902
5	200	1650449513	605.364	212.28	769.332	-7.804878	4.756098	0.9756098	-518	-184	-554	0.9307584	0.102237	-0.3453475	-0.06302072
5	200	1650449513	630.252	211.548	782.508	-7.439024	3.536585	0.2439024	-518	-184	-554	0.9306446	0.1020539	-0.3457137	-0.0629902
5	200	1650449513	598.044	213.012	763.476	-7.195122	3.170732	0	-519	-182	-552	0.9309905	0.101413	-0.3449813	-0.06292918
5	200	1650449513	614.88	217.404	767.868	-6.829268	3.414634	0.6097561	-519	-182	-552	0.930704	0.1022065	-0.3454695	-0.06320383
5	200	1650449513	609.756	219.6	781.044	-7.195122	2.804878	0.6097561	-519	-183	-555	0.9311383	0.1019013	-0.3443709	-0.06329539
5	200	1650449513	606.828	225.456	767.868	-8.170732	0.9756098	0.9756098	-519	-183	-555	0.9311935	0.1027558	-0.3438825	-0.06375316
5	200	1650449513	612.684	226.188	758.352	-9.146341	-0.4878049	1.219512	-517	-183	-553	0.9313183	0.1027558	-0.3435164	-0.06390577
5	200	1650449513	624.396	217.404	789.828	-9.756098	-2.073171	2.317073	-517	-182	-554	0.9312329	0.1025727	-0.343791	-0.06396679
5	200	1650449513	617.076	213.012	770.064	-9.878049	-2.560976	2.317073	-517	-182	-554	0.931264	0.1022065	-0.3438215	-0.06393628
5	200	1650449513	607.56	207.156	753.228	-10	-2.926829	2.560976	-517	-181	-554	0.9313192	0.1015351	-0.3438826	-0.06387525
5	200	1650449513	630.252	238.632	773.724	-10.2439	-2.439024	2.439024	-517	-181	-554	0.9309357	0.1013825	-0.3449813	-0.06378369
5	200	1650449513	595.116	229.848	767.868	-10.36585	-0.8536586	2.195122	-518	-182	-555	0.9312397	0.1008332	-0.3443098	-0.06384473
5	200	1650449513	600.972	232.044	795.684	-10.2439	0.3658537	1.95122	-518	-182	-555	0.9313936	0.1007721	-0.3438826	-0.06399731
5	200	1650449513	606.828	215.94	783.972	-9.878049	1.585366	1.463415	-520	-182	-553	0.9318621	0.1000397	-0.3428144	-0.06405835
5	200	1650449513	617.076	211.548	787.632	-9.634147	2.439024	1.341463	-520	-182	-553	0.9321815	0.09939878	-0.342143	-0.06399731
5	200	1650449513	639.036	223.26	779.58	-9.512196	2.804878	2.073171	-518	-182	-553	0.93226	0.09949035	-0.3418684	-0.06418043
5	200	1650449513	584.136	210.084	769.332	-9.390244	3.170732	2.804878	-518	-182	-553	0.9324886	0.0990631	-0.3413801	-0.0641194
5	200	1650449513	619.272	229.116	787.632	-9.512196	3.292683	3.536585	-519	-181	-554	0.9322182	0.09918514	-0.3420819	-0.06411938
5	200	1650449513	600.972	230.58	789.828	-9.878049	3.536585	4.268293	-519	-181	-554	0.9324601	0.0989105	-0.3415022	-0.0641194
5	200	1650449514	606.828	208.62	764.94	-9.146341	3.414634	4.02439	-519	-180	-553	0.9322573	0.09836116	-0.3422651	-0.06384473
5	200	1650449514	617.076	216.672	772.992	-8.04878	3.414634	3.902439	-519	-180	-553	0.9324134	0.0986053	-0.3417463	-0.0639668
5	200	1650449514	615.612	223.26	745.176	-6.219512	3.292683	3.536585	-517	-181	-554	0.9320027	0.09775078	-0.3432111	-0.06341746
5	200	1650449514	602.436	207.888	769.332	-5.731708	3.414634	3.170732	-517	-181	-554	0.9321588	0.09732351	-0.3429365	-0.06326486
5	200	1650449514	617.076	226.188	789.828	-5.243903	4.512195	3.292683	-518	-180	-552	0.9321504	0.09720146	-0.3430281	-0.06308176
5	200	1650449514	613.416	213.012	748.836	-5.243903	5.365854	3.658537	-518	-180	-552	0.9318647	0.09707938	-0.3438826	-0.06283761
5	200	1650449514	607.56	195.444	781.044	-5.97561	5.609756	3.902439	-517	-180	-553	0.9317484	0.09659109	-0.3444014	-0.06247139
5	200	1650449514	607.56	233.508	781.044	-6.707317	4.878049	4.02439	-517	-180	-553	0.9319158	0.09738457	-0.343669	-0.06277658
5	200	1650449514	633.912	202.032	770.064	-7.682927	1.829268	4.268293	-517	-181	-553	0.9316555	0.09714042	-0.344493	-0.06250191
5	200	1650449514	633.18	224.724	763.476	-8.414635	0.1219512	5.121951	-517	-181	-553	0.931083	0.09732353	-0.3460189	-0.0623188
5	200	1650449514	628.788	215.94	783.972	-8.292683	-0.7317073	5	-517	-180	-552	0.9310286	0.09671314	-0.3463851	-0.06204412
5	200	1650449514	638.304	205.692	742.98	-8.170732	-0.7317073	4.634147	-517	-180	-552	0.9304068	0.09610279	-0.3483078	-0.06155583
5	200	1650449514	647.088	212.28	761.28	-8.170732	-0.1219512	4.390244	-517	-178	-552	0.9304937	0.09488205	-0.3484909	-0.06109806
5	200	1650449514	617.808	236.436	793.488	-9.02439	0	4.390244	-517	-178	-552	0.9306011	0.09527878	-0.3480636	-0.06128117
5	200	1650449514	628.788	213.012	790.56	-9.756098	0.7317073	4.146341	-517	-179	-553	0.9309153	0.09506516	-0.3472702	-0.06134221
5	200	1650449514	626.592	229.116	764.208	-10	1.219512	3.780488	-517	-179	-553	0.9309309	0.09500412	-0.3472396	-0.06137272
5	200	1650449514	634.644	223.26	793.488	-9.878049	2.195122	4.146341	-516	-177	-552	0.9309692	0.09485153	-0.3471786	-0.06137272
5	200	1650449514	639.036	213.012	794.952	-6.707317	5.121951	1.829268	-516	-177	-552	0.9312164	0.09500412	-0.3464461	-0.06152532
5	200	1650449514	605.364	222.528	803.004	-10.73171	2.317073	3.414634	-516	-177	-554	0.9311101	0.09491257	-0.3467513	-0.06155583
5	200	1650449514	628.788	229.116	792.756	-9.878049	1.097561	2.560976	-516	-177	-554	0.9311464	0.09503464	-0.3465987	-0.06167791
5	200	1650449514	621.468	232.044	792.756	-9.02439	1.95122	2.317073	-516	-177	-553	0.9313339	0.09567551	-0.3458357	-0.06213568
5	200	1650449514	603.9	210.084	781.044	-8.536586	3.04878	2.195122	-516	-177	-553	0.9317737	0.0951567	-0.3447981	-0.06210516
5	200	1650449514	619.272	218.868	788.364	-8.170732	4.268293	2.439024	-516	-177	-552	0.9319885	0.09482101	-0.3443098	-0.06210517
5	200	1650449514	646.356	223.26	785.436	-7.682927	4.878049	2.195122	-516	-177	-552	0.9316467	0.09472946	-0.3452865	-0.06195258
5	200	1650449514	641.232	208.62	794.22	-6.341464	4.756098	1.95122	-517	-177	-553	0.9319013	0.09393596	-0.3448591	-0.06170842
5	200	1650449514	607.56	213.012	752.496	-5.853659	3.780488	2.317073	-517	-177	-553	0.9319147	0.09384441	-0.3448592	-0.06164739
5	200	1650449514	622.2	202.764	792.024	-5.609756	3.414634	1.95122	-516	-177	-553	0.9320855	0.09329507	-0.3445845	-0.06143375
5	200	1650449514	627.324	195.444	788.364	-5.609756	3.780488	2.073171	-516	-177	-553	0.931737	0.09326456	-0.3455611	-0.06128117
5	200	1650449514	592.92	208.62	753.96	-6.219512	2.926829	1.829268	-516	-177	-559	0.93181	0.09411909	-0.3450728	-0.06161688
5	200	1650449514	627.324	210.816	748.104	-6.219512	2.560976	1.463415	-516	-177	-559	0.9315671	0.09411909	-0.3457442	-0.06152532
5	200	1650449514	639.036	178.608	751.764	-8.04878	0.8536586	1.829268	-516	-177	-552	0.9316235	0.09201331	-0.3462935	-0.06076235
5	200	1650449514	589.992	182.268	746.64	-9.390244	-0.6097561	2.804878	-516	-177	-552	0.9316384	0.09131138	-0.3464766	-0.06054872
5	200	1650449514	608.292	216.672	754.692	-10.12195	-0.4878049	2.682927	-516	-176	-552	0.9316208	0.0910062	-0.3465987	-0.06057924
5	200	1650449514	587.796	196.908	757.62	-10	0	3.04878	-516	-176	-552	0.9316274	0.09082309	-0.3466293	-0.06057924
5	200	1650449514	595.116	218.868	783.972	-9.756098	0.1219512	2.804878	-516	-176	-553	0.9315761	0.09128086	-0.3465987	-0.06085391
5	200	1650449514	586.332	214.476	773.724	-9.878049	0.1219512	2.926829	-516	-176	-553	0.9320439	0.09121982	-0.3453169	-0.06106753
5	200	1650449514	600.972	221.064	764.94	-9.146341	-0.1219512	3.292683	-516	-176	-552	0.9325259	0.09219643	-0.3436384	-0.06170843
5	200	1650449514	620.736	194.712	817.644	-8.536586	-0.4878049	3.04878	-516	-176	-552	0.9326856	0.09140293	-0.3434553	-0.0614948
5	200	1650449514	603.9	216.672	796.416	-8.292683	-0.9756098	2.560976	-516	-174	-552	0.9324107	0.09234901	-0.3438826	-0.06186102
5	200	1650449514	643.428	202.764	763.476	-7.926829	-1.585366	2.560976	-516	-174	-552	0.9319131	0.09277627	-0.3451033	-0.06192205
5	200	1650449514	618.54	195.444	775.188	-6.829268	-1.097561	2.195122	-516	-175	-551	0.9320771	0.09213538	-0.3448592	-0.06176946
5	200	1650449514	628.788	223.26	747.372	-5.97561	-0.8536586	1.707317	-516	-175	-551	0.931642	0.09305093	-0.3457442	-0.06201361
5	200	1650449514	656.604	192.516	777.384	-4.390244	0.2439024	1.219512	-515	-175	-552	0.9314889	0.09204382	-0.3465072	-0.06155583
5	200	1650449514	613.416	188.124	808.86	-3.414634	1.585366	0.8536586	-515	-175	-552	0.9318035	0.09146397	-0.3458357	-0.06143375
5	200	1650449514	636.108	211.548	785.436	-2.560976	3.170732	0.3658537	-516	-175	-552	0.9317539	0.09173865	-0.3458968	-0.06143376
5	200	1650449514	619.272	193.98	797.148	-1.463415	4.02439	0.4878049	-516	-175	-552	0.9318938	0.09143346	-0.3456221	-0.06131168
5	200	1650449514	620.736	213.012	782.508	-1.097561	6.097561	-0.4878049	-516	-175	-552	0.9321562	0.09152501	-0.3448897	-0.06131168
5	200	1650449514	599.508	209.352	799.344	-1.585366	7.195122	-0.6097561	-516	-175	-552	0.9324403	0.09195227	-0.3439741	-0.0614948
5	200	1650449514	620.736	220.332	760.548	-2.317073	8.536586	-0.3658537	-516	-175	-552	0.9325338	0.0921659	-0.3436689	-0.06146428
5	200	1650449514	641.964	210.816	778.848	-2.804878	9.02439	-0.3658537	-516	-175	-552	0.9326147	0.09225745	-0.3434248	-0.06146428
5	200	1650449514	591.456	200.568	775.188	-3.536585	8.902439	-0.2439024	-516	-176	-553	0.9327374	0.09237953	-0.3430586	-0.06146428
5	200	1650449514	596.58	188.856	765.672	-3.292683	9.390244	0	-516	-176	-553	0.9328181	0.09247109	-0.3428144	-0.06146428
5	200	1650449514	599.508	218.868	778.848	-3.536585	9.756098	0.8536586	-516	-176	-553	0.9329567	0.09256264	-0.3424177	-0.06143376
5	200	1650449514	610.488	219.6	759.084	-3.536585	9.878049	0.9756098	-516	-176	-553	0.9330555	0.09262368	-0.342143	-0.06137273
5	200	1650449514	605.364	215.94	805.2	-3.658537	9.512196	1.341463	-515	-176	-552	0.9331957	0.09271523	-0.3417463	-0.06131168
5	200	1650449514	589.26	198.372	745.908	-3.902439	8.658537	2.073171	-515	-176	-554	0.9332718	0.09277626	-0.3415326	-0.06125064
5	200	1650449514	602.436	186.66	778.848	-5	7.073171	2.560976	-515	-176	-554	0.9333975	0.09280678	-0.3411969	-0.06115909
5	200	1650449514	608.292	199.104	764.94	-4.878049	5.853659	2.317073	-514	-175	-555	0.9333924	0.09271523	-0.341258	-0.06103702
5	200	1650449514	622.2	202.764	769.332	-6.341464	3.292683	2.317073	-514	-175	-555	0.933477	0.09222694	-0.3411969	-0.06082339
5	200	1650449514	618.54	196.908	781.044	-7.560976	1.707317	2.804878	-514	-176	-554	0.933539	0.09173864	-0.3411969	-0.06060976
5	200	1650449514	607.56	215.94	755.424	-8.536586	0.9756098	2.682927	-514	-176	-554	0.9335759	0.09140293	-0.3411969	-0.06054872
5	200	1650449514	614.88	199.104	774.456	-8.780488	-0.3658537	2.560976	-514	-175	-554	0.9332666	0.09121983	-0.3421125	-0.06042665
5	200	1650449514	619.272	192.516	786.168	-8.292683	-1.097561	2.439024	-514	-175	-554	0.9335477	0.0910062	-0.3413801	-0.06054872
5	200	1650449514	622.2	199.836	794.22	-7.804878	-1.707317	2.804878	-515	-175	-553	0.9336146	0.09060945	-0.341319	-0.06045717
5	200	1650449514	591.456	210.816	779.58	-7.073171	-2.195122	2.926829	-515	-175	-553	0.9337481	0.09118931	-0.3407392	-0.06079287
5	200	1650449514	628.788	226.188	794.22	-6.463415	-1.829268	2.560976	-512	-175	-553	0.933549	0.0920133	-0.3410138	-0.06106753
5	200	1650449514	625.128	196.908	792.024	-5	-0.2439024	1.95122	-512	-175	-553	0.9336758	0.09213537	-0.3406171	-0.06115909
5	200	1650449514	613.416	185.928	777.384	-3.902439	0.4878049	1.829268	-514	-175	-554	0.9337077	0.09170812	-0.3406781	-0.06097598
5	200	1650449514	633.912	201.3	808.128	-2.804878	1.097561	1.707317	-514	-175	-554	0.9335104	0.09149449	-0.341319	-0.06073184
5	200	1650449514	622.932	211.548	810.324	-2.560976	1.585366	1.707317	-513	-174	-553	0.9335134	0.09204382	-0.3411359	-0.06088443
5	200	1650449514	602.436	221.796	794.952	-1.585366	2.682927	1.341463	-513	-174	-553	0.9335547	0.09302042	-0.3407086	-0.06115909
5	200	1650449514	607.56	195.444	777.384	-1.463415	3.292683	1.341463	-514	-174	-553	0.9333802	0.09289835	-0.341258	-0.06094546
5	200	1650449514	606.096	195.444	790.56	-1.95122	4.146341	0.8536586	-514	-174	-553	0.9334692	0.09277627	-0.3410749	-0.06079287
5	200	1650449514	603.168	244.488	793.488	-2.439024	5	1.341463	-514	-175	-552	0.933648	0.09402751	-0.3401593	-0.06125064
5	200	1650449514	626.592	183	806.664	-2.804878	6.341464	1.463415	-514	-175	-552	0.9339486	0.09289835	-0.3397321	-0.06076236
5	200	1650449514	589.26	218.868	810.324	-2.804878	7.073171	1.097561	-513	-175	-554	0.9339989	0.0929899	-0.3395795	-0.06070131
5	200	1650449514	608.292	202.032	794.952	-3.170732	7.317073	1.097561	-513	-175	-554	0.9340937	0.09308146	-0.3393048	-0.06064028
5	200	1650449514	616.344	214.476	770.796	-3.658537	6.707317	1.219512	-513	-174	-554	0.934156	0.09314249	-0.3391217	-0.06060976
5	200	1650449514	576.084	202.032	734.196	-4.878049	5.609756	1.341463	-513	-174	-554	0.9336457	0.09311197	-0.3405866	-0.06030457
5	200	1650449514	634.644	210.084	791.292	-5.609756	4.878049	1.341463	-513	-175	-554	0.9334572	0.09314249	-0.3411054	-0.06024354
5	200	1650449514	645.624	199.104	766.404	-6.341464	4.268293	1.341463	-513	-175	-554	0.9332368	0.09326456	-0.3416852	-0.0601825
5	200	1650449514	591.456	207.156	795.684	-6.707317	4.268293	1.707317	-513	-176	-554	0.9335068	0.09320353	-0.3409528	-0.06024354
5	200	1650449514	591.456	222.528	773.724	-6.95122	4.390244	1.585366	-513	-176	-554	0.9334999	0.09360027	-0.3408307	-0.06042665
5	200	1650449514	598.044	217.404	773.724	-7.560976	4.146341	1.707317	-512	-175	-555	0.9337105	0.09366131	-0.3402203	-0.06051821
5	200	1650449514	584.136	196.908	757.62	-7.926829	2.926829	2.317073	-512	-175	-555	0.9336833	0.0933256	-0.3404035	-0.06042665
5	200	1650449514	626.592	212.28	794.952	-7.926829	2.682927	2.560976	-512	-175	-555	0.9338017	0.09323405	-0.3400983	-0.06045717
5	200	1650449514	600.972	225.456	813.252	-7.073171	2.195122	2.804878	-512	-175	-555	0.9340106	0.09250161	-0.3397626	-0.06024355
5	200	1650449514	587.064	204.228	762.744	-6.219512	2.439024	2.926829	-510	-174	-554	0.9340359	0.0928373	-0.3395795	-0.06036561
5	200	1650449514	589.26	213.012	797.88	-5	2.682927	2.804878	-510	-174	-554	0.9343029	0.09289835	-0.3388165	-0.06042665
5	200	1650449514	605.364	210.816	778.848	-4.02439	2.804878	2.439024	-513	-175	-554	0.9344316	0.09259316	-0.3385724	-0.06027406
5	200	1650449514	619.272	205.692	740.784	-4.146341	3.902439	2.317073	-513	-175	-554	0.9343908	0.09210486	-0.3388775	-0.05993835
5	200	1650449514	603.9	198.372	789.828	-3.658537	4.02439	2.073171	-512	-175	-556	0.934294	0.09222694	-0.3391217	-0.05987732
5	200	1650449514	603.9	208.62	776.652	-3.780488	3.170732	1.707317	-512	-175	-556	0.9345977	0.09210487	-0.3383282	-0.05981628
5	200	1650449514	641.964	211.548	794.22	-3.658537	2.926829	1.097561	-511	-175	-556	0.9342723	0.09204382	-0.3392743	-0.05963317
5	200	1650449514	604.632	207.888	756.888	-3.780488	2.560976	2.073171	-511	-175	-556	0.9344761	0.09308145	-0.3383587	-0.06002991
5	200	1650449514	619.272	176.412	805.932	-2.926829	2.439024	1.95122	-513	-173	-555	0.9347962	0.0921659	-0.3377789	-0.05972472
5	200	1650449514	628.056	209.352	801.54	-1.097561	3.902439	1.829268	-513	-173	-555	0.934627	0.09204382	-0.3383282	-0.05945006
5	200	1650449514	599.508	199.104	814.716	-0.2439024	4.02439	2.073171	-511	-174	-555	0.9348267	0.09225746	-0.3377179	-0.05945006
5	200	1650449514	589.26	215.208	833.748	0.7317073	2.926829	1.95122	-512	-174	-556	0.9348453	0.0925016	-0.3376263	-0.05929746
5	200	1650449514	614.148	201.3	798.612	0.4878049	2.439024	2.073171	-512	-174	-556	0.934844	0.09268472	-0.3375958	-0.05920591
5	200	1650449514	584.136	226.188	769.332	-1.829268	2.560976	2.317073	-512	-174	-557	0.9349914	0.0936308	-0.3368939	-0.05938902
5	200	1650449514	590.724	240.096	770.796	-3.170732	3.292683	2.439024	-512	-174	-557	0.9348469	0.09485154	-0.3368939	-0.05972473
5	200	1650449514	611.22	238.632	804.468	-4.878049	4.268293	1.829268	-511	-174	-555	0.9345601	0.09564501	-0.3374432	-0.0598468
5	200	1650449514	637.572	206.424	772.26	-5.609756	4.756098	1.829268	-511	-174	-555	0.9341857	0.09555345	-0.3385418	-0.05963317
5	200	1650449514	594.384	240.096	792.756	-5.609756	5.121951	1.341463	-512	-174	-556	0.9348007	0.09625536	-0.3365581	-0.06009094
5	200	1650449514	597.312	209.352	788.364	-5.487805	5.609756	0.7317073	-512	-174	-556	0.9349179	0.0966216	-0.3361003	-0.06024354
5	200	1650449514	625.128	198.372	799.344	-5.365854	6.463415	0.3658537	-510	-175	-557	0.934856	0.09567553	-0.3366192	-0.05981628
5	200	1650449514	626.592	232.044	824.964	-4.512195	7.317073	0.2439024	-510	-175	-557	0.9349169	0.09570606	-0.3364361	-0.0598468
5	200	1650449514	603.9	201.3	779.58	-4.512195	7.073171	0	-510	-174	-556	0.9350204	0.0957671	-0.3361309	-0.0598468
5	200	1650449514	606.096	181.536	776.652	-5	6.585366	0.2439024	-510	-174	-556	0.9350752	0.09576708	-0.3359783	-0.0598468
5	200	1650449514	621.468	202.764	753.96	-5.609756	4.634147	0.4878049	-510	-176	-556	0.934893	0.09491255	-0.3368022	-0.05941953
5	200	1650449514	576.084	183.732	790.56	-5.609756	3.902439	0.7317073	-510	-176	-556	0.9350082	0.09448531	-0.3366192	-0.05932798
5	200	1650449514	611.22	221.796	783.972	-5.487805	3.658537	0.4878049	-510	-173	-559	0.9347053	0.09475997	-0.3373821	-0.05932798
5	200	1650449514	593.652	198.372	804.468	-5.487805	4.02439	0.1219512	-510	-173	-559	0.934934	0.09402753	-0.3369854	-0.05914488
5	200	1650449514	599.508	191.052	789.096	-5.97561	3.536585	0.6097561	-511	-173	-557	0.9351469	0.09271523	-0.3368328	-0.05871761
5	200	1650449514	616.344	223.26	800.076	-6.341464	2.926829	0.7317073	-511	-173	-557	0.935151	0.09292886	-0.3367412	-0.05883969
5	200	1650449514	573.156	198.372	800.808	-6.707317	2.560976	1.097561	-510	-175	-557	0.9353487	0.09323405	-0.3360699	-0.05905332
5	200	1650449514	589.992	185.928	764.94	-6.707317	2.195122	1.219512	-510	-175	-557	0.935233	0.09320353	-0.3364055	-0.0590228
5	200	1650449514	607.56	202.764	791.292	-6.707317	1.707317	1.585366	-510	-172	-556	0.9351563	0.0928373	-0.3367412	-0.05890073
5	200	1650449514	607.56	200.568	770.064	-6.95122	1.585366	1.585366	-510	-172	-556	0.9349571	0.09323405	-0.3371685	-0.05899228
5	200	1650449514	607.56	221.796	804.468	-6.585366	2.317073	1.829268	-511	-174	-558	0.934975	0.09360027	-0.3369854	-0.0591754
5	200	1650449514	607.56	202.764	814.716	-5.487805	3.04878	1.829268	-511	-174	-558	0.9351743	0.09311197	-0.3365887	-0.05905332
5	200	1650449514	588.528	210.084	794.952	-4.390244	3.780488	1.341463	-511	-174	-556	0.9355163	0.09323405	-0.3355815	-0.05917539
5	200	1650449514	607.56	197.64	797.148	-3.536585	3.658537	1.219512	-511	-174	-556	0.9355394	0.09280679	-0.3356731	-0.05896176
5	200	1650449514	603.9	211.548	786.9	-3.536585	3.902439	0.9756098	-510	-174	-557	0.9356678	0.09363079	-0.3350322	-0.05926695
5	200	1650449514	609.756	213.012	831.552	-3.658537	4.268293	1.097561	-510	-174	-557	0.9358861	0.0936308	-0.3344218	-0.05926695
5	200	1650449514	606.828	182.268	802.272	-4.390244	3.902439	1.463415	-510	-174	-557	0.9358425	0.09253212	-0.3349406	-0.05874813
5	200	1650449514	594.384	221.796	789.096	-4.268293	4.02439	1.463415	-510	-174	-557	0.9357181	0.09286783	-0.3351848	-0.05880917
5	200	1650449514	606.096	191.052	786.168	-4.146341	3.902439	1.585366	-510	-173	-556	0.9356552	0.09280679	-0.3353984	-0.05868709
5	200	1650449514	612.684	215.94	776.652	-3.658537	4.146341	1.585366	-510	-173	-556	0.9356449	0.09302042	-0.3353679	-0.05868709
5	200	1650449514	603.9	213.012	789.096	-3.536585	4.512195	1.95122	-509	-173	-557	0.9356943	0.09311197	-0.3352153	-0.05862606
5	200	1650449514	614.148	215.208	800.076	-3.292683	4.756098	1.585366	-509	-173	-557	0.9355186	0.09335611	-0.3356425	-0.05859553
5	200	1650449514	567.3	198.372	780.312	-3.170732	5.731708	1.219512	-510	-174	-558	0.9356914	0.09350871	-0.3351237	-0.05856502
5	200	1650449514	606.828	202.764	757.62	-3.414634	6.097561	1.097561	-510	-174	-558	0.9355764	0.09378338	-0.3353679	-0.05856502
5	200	1650449514	598.044	196.908	769.332	-4.02439	6.463415	0.6097561	-509	-174	-558	0.9357067	0.09363079	-0.3350627	-0.05847346
5	200	1650449514	576.084	198.372	755.424	-4.268293	6.097561	0.6097561	-509	-174	-558	0.9356171	0.09350871	-0.3353679	-0.05835138
5	200	1650449514	589.26	204.96	800.808	-4.878049	5.487805	0.7317073	-508	-174	-558	0.9355797	0.0938444	-0.3353679	-0.05841242
5	200	1650449514	594.384	209.352	759.084	-5.487805	4.268293	0.4878049	-508	-174	-558	0.9353169	0.09363079	-0.3361919	-0.05822932
5	200	1650449514	600.24	228.384	786.168	-6.707317	2.804878	0.3658537	-509	-173	-559	0.9354505	0.09436323	-0.335551	-0.05859554
5	200	1650449514	616.344	203.496	794.952	-6.95122	2.195122	0.8536586	-509	-173	-559	0.9353942	0.09418012	-0.3357646	-0.05856502
5	200	1650449514	620.004	215.94	786.168	-7.073171	2.073171	0.4878049	-508	-174	-567	0.9353653	0.0943022	-0.3357952	-0.05865658
5	200	1650449514	609.756	213.012	784.704	-6.829268	1.95122	0.2439024	-508	-174	-567	0.9352816	0.09363079	-0.3362529	-0.05844295
5	200	1650449514	607.56	191.052	809.592	-6.219512	2.682927	0.4878049	-508	-173	-557	0.935317	0.09338664	-0.3362224	-0.05844295
5	200	1650449514	600.972	196.176	797.148	-6.097561	3.04878	0.6097561	-508	-173	-557	0.935691	0.09311197	-0.3352458	-0.05850398
5	200	1650449514	579.744	221.064	813.984	-5.731708	3.536585	0.8536586	-508	-174	-557	0.9358153	0.09384441	-0.3346355	-0.05883969
5	200	1650449514	593.652	211.548	803.004	-5.731708	3.780488	0.9756098	-508	-174	-557	0.9358999	0.09454634	-0.3341472	-0.05914487
5	200	1650449514	591.456	210.084	772.992	-5.365854	3.04878	1.463415	-508	-173	-557	0.9360367	0.09448531	-0.3337809	-0.05914487
5	200	1650449514	613.416	196.908	794.22	-5	1.95122	1.707317	-508	-173	-557	0.9360893	0.0936308	-0.3339336	-0.05880917
5	200	1650449514	614.148	196.908	813.984	-5	-0.4878049	1.829268	-509	-173	-558	0.9363852	0.09295938	-0.3333232	-0.05862606
5	200	1650449514	593.652	199.836	807.396	-5	-2.073171	2.195122	-509	-173	-558	0.9365469	0.09311198	-0.3328044	-0.05874813
5	200	1650449514	609.756	202.032	829.356	-4.756098	-2.926829	2.195122	-508	-174	-558	0.9366475	0.09228797	-0.3328044	-0.05844295
5	200	1650449514	587.064	199.104	794.952	-4.878049	-2.560976	2.317073	-508	-174	-558	0.9366801	0.09219642	-0.3327433	-0.05841243
5	200	1650449514	617.076	194.712	762.012	-4.390244	-2.195122	2.439024	-508	-173	-558	0.9366359	0.09186071	-0.3329875	-0.05825983
5	200	1650449514	600.972	204.228	792.756	-4.390244	-1.097561	2.560976	-508	-173	-558	0.9364163	0.09237953	-0.3334453	-0.05835139
5	200	1650449514	572.424	202.764	767.868	-3.658537	-0.8536586	2.439024	-508	-174	-556	0.9368771	0.09219643	-0.332194	-0.05838191
5	200	1650449514	591.456	210.084	775.188	-3.04878	-0.6097561	2.560976	-508	-174	-556	0.9365934	0.09265419	-0.3328654	-0.0583819
5	200	1650449514	586.332	207.888	783.972	-3.04878	-0.9756098	2.804878	-509	-174	-557	0.936446	0.09277626	-0.3332621	-0.05829035
5	200	1650449514	596.58	207.156	771.528	-2.682927	-0.7317073	2.804878	-509	-174	-557	0.9363202	0.09280679	-0.3336284	-0.05816828
5	200	1650449514	589.26	191.784	788.364	-2.439024	-0.3658537	2.682927	-509	-173	-557	0.9362285	0.09302042	-0.333842	-0.05807672
5	200	1650449514	619.272	193.248	786.9	-1.829268	0.2439024	2.195122	-509	-173	-557	0.9360471	0.09225745	-0.3346355	-0.05764946
5	200	1650449514	599.508	191.784	798.612	-0.8536586	1.097561	2.073171	-509	-172	-556	0.9360304	0.09213537	-0.3347575	-0.05740531
5	200	1650449514	604.632	207.888	783.24	-0.1219512	1.097561	1.95122	-509	-172	-556	0.9358421	0.09216591	-0.3353069	-0.05722221
5	200	1650449514	595.116	208.62	795.684	-0.1219512	1.829268	1.585366	-510	-173	-556	0.9359666	0.09131139	-0.3352764	-0.05673391
5	200	1650449514	589.992	191.052	780.312	-0.3658537	2.439024	1.829268	-510	-173	-556	0.9359891	0.0910062	-0.3353374	-0.05648976
5	200	1650449514	613.416	222.528	754.692	-1.341463	2.682927	1.463415	-509	-174	-558	0.9357703	0.09158605	-0.3357952	-0.05645924
5	200	1650449514	616.344	218.868	781.776	-2.073171	2.560976	1.219512	-509	-173	-558	0.9356293	0.09173864	-0.3361614	-0.05636769
5	200	1650449514	630.984	198.372	778.848	-3.04878	2.682927	1.097561	-509	-173	-558	0.9351372	0.09176915	-0.3375652	-0.05609301
5	200	1650449514	615.612	196.908	797.88	-3.780488	2.926829	0.8536586	-509	-175	-557	0.9349114	0.09186072	-0.3381756	-0.05603199
5	200	1650449514	623.664	229.848	770.064	-4.268293	3.04878	1.097561	-509	-175	-557	0.9347872	0.0926542	-0.3382671	-0.05624561
5	200	1650449514	620.736	195.444	778.848	-4.878049	3.780488	1.097561	-509	-175	-556	0.9346473	0.09274575	-0.3386334	-0.0562151
5	200	1650449514	609.756	207.156	780.312	-5.487805	4.390244	1.585366	-509	-175	-556	0.9348774	0.09274575	-0.3379925	-0.05624561
5	200	1650449514	609.756	195.444	802.272	-5.121951	3.536585	1.829268	-509	-174	-558	0.9350092	0.09237953	-0.3377483	-0.05612354
5	200	1650449514	610.488	194.712	784.704	-5	1.585366	2.195122	-509	-174	-558	0.9352403	0.09228797	-0.337138	-0.05609302
5	200	1650449514	600.24	199.836	789.096	-5.243903	0.8536586	2.317073	-509	-175	-559	0.9351498	0.09268472	-0.3372601	-0.0562151
5	200	1650449514	619.272	183	786.9	-5.487805	0.8536586	1.95122	-509	-175	-559	0.9347603	0.09244058	-0.3384503	-0.05594043
5	200	1650449514	628.788	199.836	772.992	-5.731708	1.097561	2.195122	-509	-173	-560	0.9345365	0.09241005	-0.3390912	-0.05584887
5	200	1650449514	602.436	203.496	808.86	-6.341464	0.1219512	1.829268	-509	-173	-560	0.9350557	0.0923185	-0.3376568	-0.05600147
5	200	1650449514	620.736	211.548	815.448	-6.585366	-0.4878049	1.585366	-508	-175	-558	0.935082	0.09234901	-0.3375652	-0.0560625
5	200	1650449514	605.364	209.352	804.468	-6.585366	-1.585366	2.195122	-508	-175	-558	0.9352981	0.09268471	-0.3368328	-0.05630664
5	200	1650449514	633.912	201.3	786.9	-6.219512	-1.829268	1.829268	-508	-174	-557	0.9349377	0.09289835	-0.3377789	-0.05627614
5	200	1650449514	589.992	194.712	805.932	-5.609756	-1.707317	1.829268	-508	-174	-557	0.935175	0.09198279	-0.3374127	-0.05603198
5	200	1650449514	597.312	211.548	767.868	-5.365854	-1.341463	1.585366	-509	-175	-557	0.9351016	0.0923185	-0.3375042	-0.05615406
5	200	1650449514	605.364	212.28	785.436	-4.390244	-0.7317073	1.585366	-509	-175	-557	0.9351222	0.09259316	-0.3373516	-0.05627614
5	200	1650449514	630.252	210.084	800.076	-3.658537	0.7317073	1.219512	-509	-173	-558	0.9350937	0.09237953	-0.3375042	-0.05618457
5	200	1650449514	606.096	185.928	785.436	-2.317073	2.195122	0.6097561	-509	-173	-558	0.9352337	0.09241004	-0.3371074	-0.05618457
5	200	1650449514	597.312	172.02	792.756	-1.95122	2.560976	0.1219512	-509	-173	-556	0.9353288	0.09155553	-0.337138	-0.05581835
5	200	1650449514	587.064	201.3	783.972	-1.341463	3.04878	0	-509	-173	-556	0.9356785	0.09164708	-0.3361309	-0.05587939
5	200	1650449514	591.456	196.176	783.972	-1.341463	3.170732	0.3658537	-509	-174	-557	0.9359213	0.09207434	-0.3353069	-0.0560625
5	200	1650449514	614.88	209.352	774.456	-1.585366	3.414634	0.7317073	-509	-174	-557	0.9358718	0.09155552	-0.3356425	-0.05572679
5	200	1650449514	577.548	199.836	799.344	-2.317073	3.658537	0.8536586	-509	-174	-558	0.9361943	0.09121983	-0.3348491	-0.05563524
5	200	1650449514	615.612	200.568	781.044	-3.04878	4.02439	0.9756098	-509	-174	-558	0.9356604	0.09125035	-0.336375	-0.05536058
5	200	1650449514	586.332	201.3	778.116	-3.536585	3.780488	1.585366	-508	-174	-557	0.9357641	0.09131138	-0.3360698	-0.05536058
5	200	1650449514	560.712	211.548	770.796	-4.268293	2.439024	1.585366	-508	-174	-557	0.9358454	0.09219642	-0.335551	-0.05566576
5	200	1650449514	622.2	210.816	791.292	-4.146341	1.95122	1.95122	-509	-174	-557	0.935955	0.09247109	-0.3351543	-0.05575732
5	200	1650449514	598.044	207.888	797.88	-4.268293	1.95122	1.707317	-509	-174	-557	0.9361811	0.09222694	-0.334605	-0.05566576
5	200	1650449514	593.652	199.836	775.188	-4.634147	2.195122	1.707317	-508	-175	-557	0.9358827	0.0925016	-0.3353679	-0.05563524
5	200	1650449514	622.932	206.424	775.92	-5.365854	2.682927	1.341463	-508	-175	-557	0.9353802	0.09329507	-0.3365276	-0.05575731
5	200	1650449514	610.488	207.156	803.004	-5.487805	2.073171	0.8536586	-508	-175	-557	0.93549	0.09320352	-0.3362529	-0.05572679
5	200	1650449514	634.644	197.64	759.084	-5.97561	1.585366	1.097561	-508	-175	-557	0.9351831	0.09323405	-0.3371075	-0.05566577
5	200	1650449514	600.972	210.084	805.2	-6.097561	1.463415	0.7317073	-509	-175	-558	0.9349788	0.09356974	-0.3375652	-0.05575731
5	200	1650449514	622.2	192.516	770.064	-6.463415	1.463415	0.7317073	-509	-175	-558	0.9351338	0.09360027	-0.3371075	-0.0558794
5	200	1650449514	600.972	200.568	754.692	-6.463415	1.707317	0.6097561	-508	-175	-556	0.9348853	0.09393597	-0.3376873	-0.05597095
5	200	1650449514	599.508	206.424	759.084	-6.341464	2.195122	0.7317073	-508	-175	-556	0.9349328	0.09457686	-0.3373211	-0.05630665
5	200	1650449514	595.116	197.64	790.56	-6.219512	2.195122	1.097561	-509	-174	-557	0.9349474	0.09506515	-0.3371074	-0.05652028
5	200	1650449514	614.88	214.476	759.084	-5.121951	2.560976	1.219512	-509	-174	-557	0.935043	0.09488205	-0.3368938	-0.05652028
5	200	1650449514	600.972	207.888	830.088	-4.390244	2.439024	1.097561	-508	-174	-556	0.9352342	0.09472945	-0.3364055	-0.05652028
5	200	1650449514	595.116	221.064	830.088	-3.04878	2.439024	1.097561	-508	-174	-556	0.9354507	0.09561448	-0.33549	-0.05688649
5	200	1650449514	599.508	210.084	803.736	-2.317073	2.317073	0.7317073	-508	-174	-557	0.9355502	0.09622486	-0.3350017	-0.05710013
5	200	1650449514	599.508	235.704	783.972	-1.341463	3.04878	0.9756098	-509	-175	-559	0.9353552	0.09750665	-0.3351238	-0.05740532
5	200	1650449514	597.312	208.62	795.684	-0.9756098	2.804878	0.7317073	-509	-175	-559	0.9356241	0.09787286	-0.3342387	-0.05755791
5	200	1650449515	599.508	212.28	833.016	-0.6097561	3.04878	0.7317073	-508	-173	-558	0.9358476	0.09735405	-0.3338115	-0.05728325
5	200	1650449515	592.188	210.084	811.788	-0.7317073	3.04878	0.7317073	-508	-173	-558	0.936117	0.09704886	-0.3331706	-0.05713065
5	200	1650449515	600.972	192.516	805.932	-0.9756098	3.04878	0.9756098	-509	-174	-558	0.9361196	0.09659109	-0.3333537	-0.05679495
5	200	1650449515	611.22	179.34	750.3	-0.7317073	3.536585	0.6097561	-509	-174	-558	0.9362456	0.09561448	-0.3333536	-0.05636768
5	200	1650449515	581.94	191.784	778.848	-1.097561	3.780488	0.6097561	-509	-174	-560	0.9363272	0.09485153	-0.3334147	-0.05594043
5	200	1650449515	604.632	211.548	789.828	-1.341463	3.414634	0.4878049	-509	-174	-560	0.9361376	0.0947905	-0.3339946	-0.05575732
5	200	1650449515	581.94	211.548	748.104	-2.073171	3.536585	0.6097561	-508	-175	-559	0.9360565	0.09482102	-0.3342387	-0.05560473
5	200	1650449515	603.9	185.196	742.248	-2.804878	3.170732	0.4878049	-508	-175	-559	0.9354694	0.09509568	-0.3358257	-0.05545213
5	200	1650449515	591.456	210.084	761.28	-2.804878	3.414634	0.7317073	-508	-175	-557	0.935287	0.09521776	-0.336314	-0.05536058
5	200	1650449515	612.684	199.836	810.324	-2.439024	3.902439	0.7317073	-508	-175	-557	0.9355537	0.09482101	-0.3357036	-0.0552385
5	200	1650449515	613.416	208.62	781.044	-3.292683	4.268293	0.7317073	-507	-174	-559	0.9354318	0.09524827	-0.3359172	-0.05526902
5	200	1650449515	600.972	232.776	819.108	-4.02439	3.902439	0.6097561	-507	-174	-559	0.9354857	0.09613331	-0.3354595	-0.05560473
5	200	1650449515	592.188	195.444	797.148	-5.243903	2.560976	1.219512	-508	-175	-559	0.9355019	0.09601124	-0.3354595	-0.05554369
5	200	1650449515	606.828	207.156	818.376	-5.853659	1.95122	1.463415	-508	-175	-559	0.9355654	0.09567554	-0.3353984	-0.05542162
5	200	1650449515	589.26	215.208	785.436	-6.707317	2.317073	1.95122	-507	-175	-562	0.9353971	0.09607228	-0.3357342	-0.05554369
5	200	1650449515	596.58	212.28	797.88	-6.585366	2.560976	1.585366	-507	-175	-562	0.935806	0.09579758	-0.334666	-0.0555742
5	200	1650449515	608.292	213.012	809.592	-5.853659	3.292683	1.707317	-508	-175	-560	0.9361728	0.09558396	-0.3336894	-0.05563524
5	200	1650449515	619.272	210.816	814.716	-5.121951	3.780488	2.073171	-508	-175	-560	0.9361171	0.09527879	-0.3339641	-0.05545213
5	200	1650449515	593.652	212.28	804.468	-4.512195	3.902439	1.829268	-509	-173	-558	0.9362686	0.09588917	-0.3333232	-0.05569628
5	200	1650449515	614.148	205.692	736.392	-3.780488	4.390244	1.585366	-509	-173	-558	0.935876	0.09607226	-0.3343913	-0.0555742
5	200	1650449515	611.22	193.98	792.756	-3.902439	5.731708	1.341463	-508	-174	-560	0.9356	0.09558396	-0.3353679	-0.05517746
5	200	1650449515	600.24	204.228	815.448	-3.04878	6.463415	1.219512	-508	-174	-560	0.9359888	0.09482101	-0.3345439	-0.0549028
5	200	1650449515	582.672	204.96	820.572	-2.682927	7.195122	1.585366	-508	-175	-559	0.9360703	0.09491257	-0.3342997	-0.05484176
5	200	1650449515	562.908	245.952	794.22	-2.926829	7.926829	1.219512	-508	-175	-559	0.936144	0.0949736	-0.3340861	-0.05478073
5	200	1650449515	603.9	207.888	783.972	-2.926829	7.439024	1.097561	-507	-174	-558	0.936233	0.09509566	-0.3338114	-0.05471968
5	200	1650449515	611.22	195.444	785.436	-3.292683	7.317073	1.341463	-507	-174	-558	0.9362958	0.09515672	-0.3336284	-0.05465866
5	200	1650449515	619.272	204.228	788.364	-4.02439	7.560976	2.073171	-507	-176	-559	0.936391	0.09521776	-0.3333537	-0.05459762
5	200	1650449515	598.776	213.012	779.58	-5.731708	6.341464	3.414634	-507	-176	-559	0.9363818	0.09543137	-0.3333231	-0.05456709
5	200	1650449515	588.528	214.476	809.592	-5.243903	5.853659	2.926829	-506	-175	-560	0.9366603	0.09564502	-0.3324687	-0.05462814
5	200	1650449515	600.24	199.104	813.984	-5.121951	5.609756	3.04878	-506	-175	-560	0.9369133	0.09482101	-0.3320414	-0.05432295
5	200	1650449515	596.58	216.672	816.18	-4.634147	5.487805	4.02439	-506	-176	-562	0.9371836	0.09494309	-0.3312479	-0.05429243
5	200	1650449515	624.396	211.548	760.548	-4.146341	5.121951	4.878049	-506	-176	-562	0.9368462	0.09482101	-0.3322856	-0.05398725
5	200	1650449515	595.848	219.6	802.272	-3.780488	4.512195	5	-505	-174	-561	0.9368522	0.09488205	-0.3322855	-0.05377362
5	200	1650449515	587.064	207.156	772.26	-4.146341	4.634147	4.878049	-505	-174	-561	0.9367124	0.09506515	-0.3326518	-0.05362102
5	200	1650449515	596.58	196.176	802.272	-4.02439	5.731708	5.365854	-504	-173	-560	0.9367588	0.09515672	-0.3325297	-0.0534074
5	200	1650449515	593.652	224.724	750.3	-4.268293	6.707317	5.731708	-504	-173	-560	0.9369803	0.09454634	-0.3321329	-0.05307169
5	200	1650449515	593.652	193.248	779.58	-4.390244	8.414635	6.341464	-505	-174	-562	0.9371011	0.09448531	-0.3318583	-0.05276651
5	200	1650449515	600.24	218.868	783.24	-4.02439	9.512196	6.95122	-505	-174	-562	0.9371918	0.0944548	-0.3316447	-0.05255288
5	200	1650449515	609.024	221.796	795.684	-3.902439	11.46342	6.95122	-503	-174	-562	0.9373509	0.0944548	-0.3312479	-0.05221718
5	200	1650449515	628.788	215.208	788.364	-4.02439	12.31707	7.439024	-503	-174	-562	0.9374877	0.09442427	-0.3309122	-0.0519425
5	200	1650449515	576.084	202.764	802.272	-4.268293	11.70732	6.829268	-503	-174	-563	0.9376863	0.09436323	-0.3304239	-0.05157628
5	200	1650449515	618.54	226.188	805.2	-4.634147	10.97561	6.463415	-503	-174	-563	0.9377978	0.09433271	-0.3301492	-0.05136265
5	200	1650449515	592.188	195.444	808.128	-4.634147	11.70732	6.219512	-504	-173	-567	0.9379786	0.09430219	-0.3296915	-0.05105747
5	200	1650449515	599.508	229.116	806.664	-4.756098	13.78049	7.804878	-504	-173	-567	0.9381266	0.09424116	-0.3293252	-0.05081332
5	200	1650449515	606.828	214.476	800.808	-4.512195	15.12195	6.341464	-503	-174	-563	0.9383666	0.09418013	-0.3287149	-0.0504471
5	200	1650449515	593.652	207.888	802.272	-4.268293	16.34146	6.097561	-503	-174	-563	0.9385306	0.0941496	-0.3282876	-0.05023347
5	200	1650449515	595.116	199.836	791.292	-3.414634	16.70732	6.463415	-502	-173	-564	0.938806	0.0941496	-0.3275551	-0.04986725
5	200	1650449515	586.332	195.444	808.128	-3.414634	17.31707	5.609756	-502	-173	-564	0.9389738	0.09418012	-0.3270974	-0.04965362
5	200	1650449515	584.136	188.856	811.788	-3.902439	18.53659	6.585366	-501	-172	-564	0.9392661	0.09421064	-0.3263039	-0.04928739
5	200	1650449515	580.476	229.116	800.808	-3.780488	19.7561	6.585366	-501	-172	-564	0.9394802	0.09421065	-0.3257241	-0.04904325
5	200	1650449515	620.736	200.568	836.676	-2.804878	21.82927	6.95122	-500	-172	-566	0.9398146	0.09424116	-0.3248085	-0.04864651
5	200	1650449515	593.652	191.052	792.756	-2.317073	23.78049	7.073171	-500	-172	-566	0.9400591	0.09427168	-0.3241371	-0.04834132
5	200	1650449515	566.568	214.476	832.284	-1.707317	26.46342	7.439024	-499	-173	-566	0.9404531	0.09436324	-0.3230385	-0.04785303
5	200	1650449515	580.476	198.372	797.88	-1.219512	28.53659	8.04878	-499	-173	-566	0.9407436	0.0944548	-0.3222145	-0.04751733
5	200	1650449515	570.228	188.856	817.644	-0.9756098	32.07317	9.146341	-496	-172	-568	0.9412265	0.09460739	-0.3208411	-0.04693747
5	200	1650449515	576.084	201.3	802.272	-0.9756098	33.90244	9.756098	-496	-172	-568	0.9415812	0.09469894	-0.319834	-0.04651021
5	200	1650449515	580.476	185.928	806.664	-1.097561	36.34146	10.48781	-496	-172	-568	0.9421512	0.09482101	-0.3182165	-0.04580828
5	200	1650449515	584.136	185.928	826.428	-1.707317	37.92683	10.36585	-496	-172	-568	0.9425478	0.09488205	-0.3170873	-0.04535051
5	200	1650449515	572.424	216.672	806.664	0.6097561	41.82927	10.2439	-493	-171	-571	0.943177	0.09506517	-0.3152562	-0.04464858
5	200	1650449515	580.476	212.28	822.036	0.3658537	45.2439	10.85366	-493	-171	-571	0.9436368	0.09518723	-0.3139134	-0.04412977
5	200	1650449515	567.3	217.404	824.232	1.463415	50.12195	11.34146	-489	-171	-573	0.9443915	0.09540086	-0.3116855	-0.04330577
5	200	1650449515	580.476	209.352	859.368	1.829268	52.31707	11.34146	-489	-171	-573	0.9449217	0.09558398	-0.3100986	-0.04272591
5	200	1650449515	585.6	183	857.172	1.463415	53.90244	10.12195	-486	-170	-574	0.9457467	0.09588916	-0.3075961	-0.04187139
5	200	1650449515	572.424	207.156	835.944	0	54.02439	8.780488	-486	-171	-578	0.9463081	0.09604175	-0.305887	-0.04135258
5	200	1650449515	554.124	227.652	814.716	-0.8536586	52.92683	7.439024	-484	-171	-578	0.9471288	0.09628589	-0.303354	-0.04065065
5	200	1650449515	581.94	191.052	785.436	-1.707317	50.97561	7.560976	-480	-170	-580	0.9476596	0.09640797	-0.301706	-0.04025391
5	200	1650449515	557.052	193.98	822.768	-3.902439	45.73171	7.073171	-480	-170	-580	0.9484015	0.09649951	-0.2994171	-0.03964354
5	200	1650449515	584.136	210.084	857.172	-5.487805	44.39024	3.658537	-478	-171	-582	0.9488456	0.09649953	-0.2980438	-0.03936888
5	200	1650449515	535.092	175.68	848.388	-4.390244	40.85366	3.04878	-478	-171	-582	0.94949	0.09659109	-0.295999	-0.03903317
5	200	1650449515	546.804	198.372	799.344	-4.390244	40.97561	2.073171	-475	-170	-582	0.9499036	0.09662159	-0.2946867	-0.03881954
5	200	1650449515	524.844	207.156	841.8	-2.560976	40.85366	1.341463	-475	-170	-582	0.950505	0.09674367	-0.2927336	-0.0385754
5	200	1650449515	518.256	209.352	849.12	-1.341463	40	1.585366	-473	-169	-586	0.9508907	0.09689627	-0.2914518	-0.03839229
5	200	1650449515	497.76	215.208	861.564	-1.585366	39.02439	2.073171	-473	-169	-586	0.9514547	0.09714042	-0.2895597	-0.03811762
5	200	1650449515	518.988	208.62	872.544	-1.097561	39.14634	1.707317	-471	-172	-587	0.9518171	0.09729301	-0.2883389	-0.03793451
5	200	1650449515	549.732	192.516	863.76	-0.6097561	39.87805	1.219512	-471	-172	-587	0.9523723	0.09756768	-0.2864467	-0.03762932
5	200	1650449515	511.668	202.764	882.06	-1.219512	39.14634	1.95122	-468	-170	-587	0.9527393	0.09772027	-0.2851955	-0.03744622
5	200	1650449515	511.668	209.352	874.74	-2.560976	37.92683	1.707317	-468	-170	-587	0.9532742	0.09793388	-0.2833643	-0.03717154
5	200	1650449515	521.916	192.516	878.4	-2.439024	35.85366	1.097561	-467	-169	-588	0.9536217	0.09805596	-0.2821741	-0.03698843
5	200	1650449515	532.164	204.96	858.636	-0.4878049	33.53659	-0.3658537	-467	-169	-588	0.9540899	0.09830012	-0.2805261	-0.03680532
5	200	1650449515	505.812	169.092	876.204	0.4878049	32.43903	-0.1219512	-464	-169	-590	0.9543771	0.09851375	-0.2794885	-0.03668325
5	200	1650449515	523.38	195.444	841.068	-0.1219512	30.73171	0.3658537	-464	-169	-590	0.9547849	0.09884945	-0.2779931	-0.03653065
5	200	1650449515	506.544	210.816	877.668	-0.8536586	29.39025	0.4878049	-464	-170	-592	0.9550366	0.09903257	-0.2770776	-0.03640858
5	200	1650449515	516.792	218.868	852.78	-1.219512	28.53659	0.3658537	-464	-170	-592	0.9554157	0.09927673	-0.2757042	-0.03622548
5	200	1650449515	508.008	185.928	863.76	-1.097561	28.78049	0.7317073	-462	-170	-593	0.9556649	0.09945982	-0.2747886	-0.0361034
5	200	1650449515	500.688	196.908	879.132	-0.6097561	30	0.6097561	-462	-170	-593	0.9560403	0.09970398	-0.2734154	-0.03592029
5	200	1650449515	480.924	193.98	863.028	0.2439024	31.82927	1.585366	-460	-169	-594	0.9563024	0.0999176	-0.2724387	-0.03576769
5	200	1650449515	488.976	201.3	868.884	0.4878049	33.41463	2.926829	-460	-169	-594	0.956714	0.1002228	-0.2709128	-0.03549302
5	200	1650449515	497.76	191.052	853.512	0.6097561	35.4878	3.902439	-458	-171	-596	0.9570144	0.1004059	-0.2698141	-0.03524888
5	200	1650449515	490.44	191.784	894.504	1.463415	38.04878	4.512195	-458	-171	-596	0.9574866	0.1007111	-0.2680746	-0.03482161
5	200	1650449515	520.452	210.816	895.968	1.463415	39.7561	3.536585	-455	-170	-597	0.9578045	0.1009552	-0.2668844	-0.03451644
5	200	1650449515	508.74	191.052	884.988	0.7317073	41.58537	4.390244	-455	-170	-597	0.9583232	0.1013215	-0.2649312	-0.03408918
5	200	1650449515	480.192	221.796	885.72	-0.6097561	39.5122	4.634147	-455	-171	-599	0.9586765	0.1015046	-0.2636189	-0.03378399
5	200	1650449515	483.12	182.268	865.224	-1.95122	36.70732	6.829268	-455	-171	-599	0.9591674	0.1016877	-0.2618183	-0.03329569
5	200	1650449515	478.728	229.848	884.988	-2.682927	35.60976	7.317073	-451	-170	-600	0.9594812	0.1017487	-0.2606891	-0.03292948
5	200	1650449515	476.532	205.692	860.1	-3.414634	33.65854	8.658537	-451	-170	-600	0.9599313	0.1018097	-0.2590716	-0.03238013
5	200	1650449515	496.296	204.228	866.688	-5.487805	32.92683	7.926829	-449	-171	-602	0.9602231	0.1018097	-0.258034	-0.03201392
5	200	1650449515	455.304	214.476	877.668	-6.707317	30.97561	7.439024	-449	-171	-602	0.9606526	0.1016877	-0.2565386	-0.03152562
5	200	1650449515	474.336	215.208	867.42	-7.439024	29.14634	6.829268	-447	-170	-602	0.9609244	0.1015961	-0.2555925	-0.03122043
5	200	1650449515	454.572	214.476	895.968	-7.804878	26.09756	4.268293	-447	-170	-602	0.9612916	0.1014435	-0.2543108	-0.03088473
5	200	1650449515	470.676	200.568	902.556	-8.536586	24.87805	3.536585	-443	-169	-603	0.9615189	0.1013215	-0.2535173	-0.03073214
5	200	1650449515	447.984	223.992	908.412	-8.780488	24.02439	3.170732	-443	-169	-603	0.961841	0.1011383	-0.2523881	-0.03054903
5	200	1650449515	453.84	196.908	882.792	-8.780488	23.78049	3.04878	-442	-168	-605	0.9620575	0.1010163	-0.2516251	-0.03042695
5	200	1650449515	461.16	191.052	901.824	-8.902439	22.80488	3.170732	-442	-168	-605	0.9623613	0.1008332	-0.250557	-0.03024384
5	200	1650449515	442.86	209.352	875.472	-8.658537	21.46342	2.195122	-442	-168	-605	0.9625594	0.1007111	-0.249855	-0.03015229
5	200	1650449515	445.788	199.104	870.348	-8.414635	19.14634	1.95122	-442	-168	-605	0.9628265	0.100528	-0.248909	-0.03006073
5	200	1650449515	442.86	211.548	871.08	-8.170732	16.82927	1.341463	-440	-168	-605	0.9629798	0.1004364	-0.2483597	-0.0299997
5	200	1650449515	460.428	199.836	882.06	-7.682927	13.41463	0.6097561	-440	-168	-605	0.9631742	0.1003143	-0.2476577	-0.02996918
5	200	1650449515	442.86	202.032	883.524	-7.195122	12.31707	0.2439024	-440	-168	-606	0.9632779	0.1002228	-0.2472915	-0.02996918
5	200	1650449515	439.932	213.012	857.904	-6.95122	10.73171	0	-438	-168	-607	0.9634172	0.1001617	-0.2467727	-0.02996918
5	200	1650449515	467.016	223.992	892.308	-6.585366	10.48781	-0.4878049	-438	-168	-607	0.9635006	0.1001007	-0.2464675	-0.02999969
5	200	1650449515	447.252	210.816	872.544	-6.585366	10.60976	-0.7317073	-438	-168	-607	0.9636222	0.1000397	-0.2460097	-0.03006073
5	200	1650449515	442.86	198.372	885.72	-6.341464	10.2439	-0.8536586	-438	-168	-607	0.9636992	0.1000397	-0.2457045	-0.03009125
5	200	1650449515	461.16	204.228	885.72	-6.707317	8.780488	-0.3658537	-438	-167	-607	0.9638123	0.09997864	-0.2452773	-0.03015229
5	200	1650449515	444.324	180.804	884.988	-7.317073	7.439024	-0.1219512	-438	-167	-607	0.963872	0.0999176	-0.2450636	-0.03018281
5	200	1650449515	416.508	202.032	876.204	-8.170732	5.609756	0.6097561	-438	-168	-608	0.9638752	0.1000092	-0.2450026	-0.03027436
5	200	1650449515	454.572	183	866.688	-9.268293	5	1.219512	-438	-168	-608	0.963963	0.09982605	-0.2447279	-0.03030488
5	200	1650449515	461.16	186.66	869.616	-9.268293	4.634147	1.829268	-438	-169	-607	0.9637823	0.09936828	-0.2456435	-0.03015229
5	200	1650449515	449.448	201.3	911.34	-9.268293	4.634147	1.707317	-438	-169	-607	0.9639736	0.09909361	-0.2450026	-0.03015229
5	200	1650449515	420.168	213.744	900.36	-8.658537	5.243903	2.073171	-437	-168	-608	0.9641923	0.09979553	-0.2438124	-0.03048799
5	200	1650449515	438.468	192.516	901.824	-8.170732	5.487805	2.195122	-437	-168	-608	0.9642826	0.0997345	-0.2434767	-0.03051851
5	200	1650449515	442.86	180.804	907.68	-7.682927	5.243903	2.195122	-437	-166	-608	0.9645744	0.09909359	-0.2425916	-0.03042695
5	200	1650449515	445.788	213.012	882.792	-7.439024	5	1.95122	-437	-166	-608	0.9647159	0.09945982	-0.2418592	-0.03057955
5	200	1650449515	444.324	188.856	890.844	-6.829268	4.268293	2.073171	-438	-165	-607	0.9649053	0.09952086	-0.2410657	-0.0306711
5	200	1650449515	442.86	204.96	888.648	-6.829268	3.658537	1.95122	-438	-165	-607	0.9649694	0.09949034	-0.2408216	-0.0306711
5	200	1650449515	439.932	196.176	903.288	-6.829268	2.317073	1.829268	-437	-166	-607	0.9650409	0.09918516	-0.240669	-0.03061007
5	200	1650449515	447.984	217.404	911.34	-6.585366	1.219512	1.585366	-437	-166	-607	0.9648622	0.09964293	-0.2411878	-0.0306711
5	200	1650449515	439.2	206.424	914.268	-5.97561	0.6097561	1.585366	-436	-165	-616	0.9646478	0.1000702	-0.2418592	-0.03073214
5	200	1650449515	468.48	182.268	895.236	-5.487805	0.8536586	1.219512	-436	-165	-616	0.9645295	0.09964294	-0.2425306	-0.03054903
5	200	1650449515	472.14	176.412	874.74	-4.512195	1.829268	0.9756098	-436	-166	-607	0.9644687	0.0987579	-0.2431715	-0.03024384
5	200	1650449515	452.376	219.6	935.496	-4.02439	2.560976	0.8536586	-436	-166	-607	0.9647421	0.0990936	-0.2419202	-0.03045747
5	200	1650449515	465.552	202.764	909.876	-3.536585	3.04878	0.3658537	-437	-167	-608	0.9642701	0.0997345	-0.2435377	-0.03042696
5	200	1650449515	455.304	169.092	920.856	-3.292683	3.170732	-0.1219512	-437	-167	-608	0.9644358	0.09878843	-0.2432936	-0.03021333
5	200	1650449515	445.788	191.052	932.568	-3.902439	2.926829	-0.3658537	-436	-166	-608	0.9644585	0.09802544	-0.2435377	-0.02999969
5	200	1650449515	475.8	188.856	901.824	-4.512195	1.219512	-0.6097561	-436	-166	-608	0.9645146	0.09772027	-0.2434462	-0.02993866
5	200	1650449515	470.676	185.928	897.432	-5.121951	-1.707317	-0.8536586	-437	-166	-608	0.9642504	0.09717093	-0.2447279	-0.02978607
5	200	1650449515	461.16	196.176	890.844	-5.487805	-3.902439	-1.341463	-437	-166	-608	0.9640356	0.09707939	-0.245613	-0.02975555
5	200	1650449515	431.88	192.516	904.02	-6.585366	-6.219512	-1.585366	-437	-167	-607	0.9639551	0.09704886	-0.2459182	-0.02993866
5	200	1650449515	454.572	186.66	894.504	-6.585366	-8.170732	-1.829268	-437	-167	-607	0.9638796	0.09698783	-0.2462233	-0.03006073
5	200	1650449515	460.428	208.62	891.576	-6.585366	-9.390244	-1.585366	-437	-167	-607	0.9637463	0.09692679	-0.2467421	-0.03027436
5	200	1650449515	436.272	188.856	896.7	-6.585366	-9.512196	-1.219512	-437	-167	-607	0.9636517	0.09689627	-0.2471084	-0.03039644
5	200	1650449515	462.624	195.444	854.976	-7.195122	-7.926829	-0.8536586	-438	-165	-607	0.9635218	0.0968047	-0.2476272	-0.03057954
5	200	1650449515	441.396	192.516	852.78	-8.170732	-5.97561	0	-438	-165	-607	0.9634576	0.09671316	-0.2479019	-0.0306711
5	200	1650449515	467.748	196.176	879.132	-8.292683	-3.170732	-0.3658537	-439	-167	-604	0.9633172	0.09665211	-0.2484512	-0.03082369
5	200	1650449515	451.644	207.156	932.568	-7.317073	-1.585366	-0.6097561	-439	-167	-604	0.9634211	0.09701835	-0.2478714	-0.03109836
5	200	1650449515	438.468	213.012	880.596	-7.439024	-1.585366	-0.3658537	-439	-165	-605	0.9635829	0.09775078	-0.2468947	-0.03155614
5	200	1650449515	461.16	193.248	868.152	-7.682927	-1.341463	0.1219512	-439	-165	-605	0.9635504	0.0975982	-0.2470779	-0.03158666
5	200	1650449515	455.304	175.68	887.184	-8.04878	-1.219512	0.4878049	-438	-168	-605	0.9636011	0.0968047	-0.2471999	-0.03152562
5	200	1650449515	439.2	193.98	897.432	-8.04878	-0.7317073	0	-438	-168	-605	0.9637549	0.09671316	-0.2466201	-0.03164769
5	200	1650449515	469.212	193.98	873.276	-7.804878	-1.707317	-0.4878049	-440	-167	-605	0.9635345	0.09677419	-0.2474441	-0.03173925
5	200	1650449515	455.304	193.248	912.072	-7.804878	-1.95122	-0.7317073	-440	-167	-605	0.9637002	0.09683522	-0.2467421	-0.03198339
5	200	1650449515	451.644	204.228	901.092	-7.804878	-1.95122	-0.8536586	-440	-165	-605	0.9632673	0.09762872	-0.248085	-0.03222755
5	200	1650449515	456.768	208.62	894.504	-7.682927	-2.195122	-0.9756098	-440	-165	-605	0.9633791	0.09811701	-0.2474136	-0.03256325
5	200	1650449515	476.532	204.228	892.308	-7.926829	-2.926829	-0.7317073	-440	-166	-605	0.9632773	0.09820857	-0.2477493	-0.03274636
5	200	1650449515	445.056	201.3	882.06	-8.04878	-4.268293	-0.9756098	-440	-166	-605	0.9632443	0.09811702	-0.2479019	-0.03283792
5	200	1650449515	443.592	196.908	893.772	-8.536586	-5.97561	-1.097561	-440	-166	-605	0.963167	0.09796441	-0.2482376	-0.03302103
5	200	1650449515	433.344	212.28	879.864	-8.658537	-6.707317	-0.9756098	-440	-166	-605	0.9631123	0.09784234	-0.2484817	-0.0331431
5	200	1650449515	454.572	204.96	872.544	-10.2439	-9.878049	0.6097561	-440	-165	-605	0.9630114	0.0975982	-0.2489395	-0.03335673
5	200	1650449515	480.924	155.184	865.956	-10.60976	-11.58537	1.463415	-440	-165	-605	0.9629253	0.09741508	-0.2493362	-0.03341777
5	200	1650449515	453.108	207.888	883.524	-11.95122	-14.14634	0.1219512	-440	-165	-602	0.9627628	0.09707938	-0.2500687	-0.03360088
5	200	1650449515	444.324	204.228	871.08	-11.34146	-13.04878	0	-440	-165	-602	0.9626472	0.09683524	-0.2505875	-0.03375348
5	200	1650449515	470.676	188.124	907.68	-10	-11.21951	0.4878049	-441	-165	-604	0.9624975	0.09653005	-0.2512589	-0.03390607
5	200	1650449515	486.048	173.484	890.112	-10.2439	-11.46342	0.7317073	-441	-165	-604	0.9623998	0.09634694	-0.2516862	-0.03402814
5	200	1650449515	442.86	160.308	866.688	-12.19512	-13.17073	1.219512	-443	-164	-602	0.9622532	0.09601123	-0.2523575	-0.03415021
5	200	1650449515	442.86	191.052	877.668	-13.65854	-14.02439	1.219512	-443	-164	-602	0.9621401	0.09573658	-0.2528764	-0.03427229
5	200	1650449515	480.192	196.908	877.668	-14.14634	-14.63415	0.6097561	-443	-164	-602	0.96198	0.09524827	-0.2536393	-0.03448592
5	200	1650449515	450.912	193.248	906.948	-14.5122	-14.63415	0.8536586	-443	-164	-602	0.9618627	0.09491257	-0.2541887	-0.03463851
5	200	1650449515	464.82	196.908	888.648	-14.7561	-14.26829	0.9756098	-444	-164	-600	0.9616972	0.09439376	-0.2549822	-0.03482162
5	200	1650449515	494.832	181.536	876.204	-14.14634	-14.39024	0.9756098	-444	-164	-600	0.9615868	0.09405804	-0.255501	-0.03497421
5	200	1650449515	476.532	170.556	874.74	-12.31707	-15.12195	0.6097561	-445	-164	-600	0.9614125	0.09360027	-0.2562945	-0.03518784
5	200	1650449515	455.304	179.34	894.504	-13.17073	-18.17073	0.6097561	-445	-164	-600	0.9612717	0.09332559	-0.2569048	-0.03530991
5	200	1650449515	472.872	195.444	901.824	-14.87805	-20.2439	1.585366	-446	-162	-599	0.9610444	0.09280679	-0.2579119	-0.03552354
5	200	1650449515	463.356	189.588	887.184	-15.60976	-21.21951	1.829268	-446	-162	-599	0.960869	0.09244057	-0.2586749	-0.03567614
5	200	1650449515	445.788	193.98	887.916	-16.82927	-22.43903	1.95122	-448	-162	-598	0.9606066	0.09183019	-0.2598346	-0.03588977
5	200	1650449515	487.512	201.3	852.048	-16.82927	-22.07317	2.195122	-449	-161	-596	0.9604307	0.09137242	-0.2606281	-0.03601184
5	200	1650449515	493.368	174.948	904.02	-15.97561	-21.34146	2.073171	-449	-161	-596	0.9601681	0.09073153	-0.2617878	-0.03622547
5	200	1650449515	490.44	180.072	878.4	-15.2439	-20.36585	1.95122	-450	-161	-595	0.9599997	0.0903348	-0.2625203	-0.03637807
5	200	1650449515	487.512	171.288	876.936	-15.48781	-20.85366	2.073171	-450	-161	-595	0.9597461	0.08975495	-0.2636189	-0.03656118
5	200	1650449515	470.676	182.268	905.484	-15	-20.2439	2.195122	-451	-160	-595	0.9595728	0.08938871	-0.2643513	-0.03671376
5	200	1650449515	486.78	185.196	892.308	-14.02439	-19.63415	1.463415	-451	-160	-595	0.9593192	0.0888699	-0.2654195	-0.03689688
5	200	1650449515	471.408	191.052	862.296	-13.78049	-19.39024	1.219512	-452	-159	-592	0.959151	0.0885342	-0.2661214	-0.03701895
5	200	1650449515	511.668	170.556	879.132	-12.56098	-17.92683	0.2439024	-452	-159	-592	0.9589037	0.08807642	-0.2671285	-0.0372631
5	200	1650449515	508.008	176.412	882.06	-11.34146	-16.58537	-0.3658537	-452	-160	-593	0.9587499	0.08783227	-0.2677389	-0.03741569
5	200	1650449515	510.204	169.092	877.668	-10	-14.63415	-1.585366	-452	-160	-593	0.958528	0.08752709	-0.2685934	-0.03769036
5	200	1650449515	482.388	179.34	906.948	-10	-13.78049	-2.317073	-454	-158	-592	0.9583978	0.08737449	-0.2690817	-0.03787347
5	200	1650449515	500.688	189.588	871.08	-9.878049	-11.34146	-3.658537	-454	-158	-592	0.9582065	0.08716086	-0.2697836	-0.03820917
5	200	1650449515	494.1	169.824	875.472	-10.36585	-10.73171	-5	-455	-160	-590	0.9580976	0.08700827	-0.2701804	-0.03848384
5	200	1650449515	482.388	204.228	865.224	-10.36585	-10.2439	-6.707317	-455	-160	-590	0.9579422	0.08679464	-0.2707297	-0.03897214
5	200	1650449515	479.46	169.824	880.596	-10.73171	-11.21951	-6.95122	-456	-159	-590	0.9578347	0.08667257	-0.2710959	-0.03933836
5	200	1650449515	513.132	156.648	871.08	-10.97561	-12.19512	-7.926829	-456	-159	-590	0.9576496	0.08645893	-0.2717368	-0.03988769
5	200	1650449515	491.904	166.164	871.08	-10.12195	-13.29268	-7.560976	-457	-159	-588	0.9575228	0.08633687	-0.2721641	-0.04028444
5	200	1650449515	488.976	189.588	854.244	-10.60976	-13.90244	-6.219512	-457	-159	-588	0.9573076	0.08615376	-0.2728965	-0.04083377
5	200	1650449515	502.152	167.628	878.4	-10.85366	-13.29268	-5.731708	-459	-159	-588	0.9571674	0.08600115	-0.2733848	-0.04116946
5	200	1650449515	508.74	164.7	850.584	-11.34146	-12.07317	-5.97561	-459	-159	-588	0.9569763	0.08575702	-0.2740563	-0.04165777
5	200	1650449515	508.74	191.052	860.832	-11.95122	-10.73171	-5.487805	-460	-160	-588	0.9568643	0.08557391	-0.274453	-0.04199347
5	200	1650449515	504.348	189.588	838.872	-11.70732	-9.02439	-5.731708	-460	-160	-588	0.9567196	0.08529923	-0.2749718	-0.04245125
5	200	1650449515	501.42	172.02	843.996	-11.82927	-8.292683	-5.853659	-461	-160	-587	0.9566244	0.08511613	-0.2753075	-0.04278695
5	200	1650449516	502.152	179.34	848.388	-11.09756	-7.073171	-5.97561	-461	-160	-587	0.9565099	0.08487199	-0.2757042	-0.04327525
5	200	1650449516	518.988	192.516	902.556	-10.73171	-6.219512	-5.97561	-461	-159	-588	0.9564392	0.08471939	-0.2759484	-0.04358044
5	200	1650449516	513.132	164.7	856.44	-10.60976	-5	-5.97561	-461	-159	-588	0.9563402	0.08450575	-0.2762841	-0.04403821
5	200	1650449516	507.276	185.928	853.512	-10.12195	-3.902439	-6.097561	-461	-159	-586	0.9562927	0.08438368	-0.2764367	-0.04434339
5	200	1650449516	516.792	187.392	841.068	-11.34146	-4.878049	-6.341464	-461	-159	-586	0.9562156	0.08420058	-0.2766808	-0.04483169
5	200	1650449516	504.348	166.164	868.152	-11.95122	-6.585366	-6.219512	-461	-159	-587	0.9561513	0.08404797	-0.2768945	-0.04516739
5	200	1650449516	484.584	182.268	868.152	-12.56098	-8.902439	-6.341464	-461	-159	-587	0.956031	0.08374278	-0.2773217	-0.04565569
5	200	1650449516	538.752	185.196	855.708	-12.43902	-10.2439	-5.853659	-462	-160	-586	0.9559321	0.08355968	-0.2776574	-0.04602192
5	200	1650449516	515.328	177.876	909.876	-10.73171	-10.85366	-7.317073	-462	-160	-586	0.9557623	0.08328501	-0.2782373	-0.04654073
5	200	1650449516	530.7	221.064	857.904	-12.56098	-14.02439	-5.487805	-464	-159	-584	0.9556422	0.08313243	-0.278634	-0.04690695
5	200	1650449516	507.276	160.308	849.12	-13.17073	-15.2439	-3.536585	-464	-159	-584	0.9554249	0.08270516	-0.2794275	-0.04736473
5	200	1650449516	491.904	192.516	869.616	-13.04878	-16.58537	-2.560976	-464	-159	-584	0.9552641	0.08246101	-0.2800073	-0.04760887
5	200	1650449516	508.008	152.256	915.732	-11.70732	-17.43902	-1.585366	-464	-159	-584	0.9550191	0.0820948	-0.2808924	-0.04794459
5	200	1650449516	521.184	169.092	858.636	-10.85366	-16.46342	-0.7317073	-465	-159	-583	0.9548469	0.08188116	-0.2815027	-0.04815821
5	200	1650449516	543.876	193.98	856.44	-10.73171	-14.7561	-0.4878049	-465	-159	-583	0.9546109	0.08154546	-0.2823572	-0.04840236
5	200	1650449516	526.308	177.876	909.144	-9.512196	-13.04878	-0.2439024	-467	-158	-581	0.9544667	0.08136234	-0.2828761	-0.04852443
5	200	1650449516	526.308	185.196	879.864	-8.536586	-11.34146	0	-467	-158	-581	0.9542828	0.08117924	-0.2835169	-0.04870754
5	200	1650449516	513.132	167.628	917.196	-7.560976	-10.12195	0.2439024	-467	-157	-582	0.9541613	0.08105715	-0.2839442	-0.04879909
5	200	1650449516	516.06	187.392	871.812	-6.829268	-8.292683	0.3658537	-467	-157	-582	0.9540136	0.08090457	-0.284463	-0.04892117
5	200	1650449516	519.72	173.484	863.028	-6.341464	-7.439024	-0.6097561	-469	-157	-581	0.9539246	0.08084353	-0.2847682	-0.04898221
5	200	1650449516	530.7	167.628	833.748	-5.365854	-6.219512	-1.463415	-469	-157	-581	0.9538008	0.08081301	-0.285165	-0.0491348
5	200	1650449516	503.616	179.34	869.616	-4.634147	-5.853659	-1.95122	-469	-157	-581	0.9537189	0.08084353	-0.2854091	-0.04925688
5	200	1650449516	521.916	184.464	842.532	-3.414634	-7.439024	-2.804878	-470	-158	-581	0.9535854	0.08090457	-0.2858059	-0.04943999
5	200	1650449516	518.988	180.072	856.44	-4.02439	-9.268293	-3.292683	-470	-158	-581	0.9534808	0.08096561	-0.286111	-0.04959258
5	200	1650449516	510.936	164.7	840.336	-5.609756	-13.04878	-3.780488	-470	-157	-580	0.9532713	0.08099613	-0.2867519	-0.04986725
5	200	1650449516	508.74	155.184	808.128	-6.463415	-14.02439	-3.902439	-470	-157	-580	0.953113	0.08099612	-0.2872402	-0.05008087
5	200	1650449516	511.668	162.504	848.388	-8.170732	-14.63415	-3.780488	-471	-159	-579	0.9528729	0.08090457	-0.2880032	-0.05041658
5	200	1650449516	508.74	170.556	852.048	-9.512196	-14.39024	-3.902439	-471	-159	-579	0.9527134	0.0807825	-0.288522	-0.05066073
5	200	1650449516	514.596	187.392	823.5	-11.21951	-14.02439	-3.658537	-472	-158	-579	0.9524907	0.08053835	-0.2892544	-0.05105747
5	200	1650449516	538.02	161.772	833.016	-12.80488	-14.02439	-2.317073	-472	-158	-579	0.9523472	0.08032472	-0.2897427	-0.05130161
5	200	1650449516	531.432	181.536	835.212	-14.5122	-13.41463	-0.6097561	-473	-158	-578	0.9521445	0.07986695	-0.2904752	-0.05163732
5	200	1650449516	506.544	173.484	870.348	-15.60976	-13.17073	0.6097561	-473	-158	-578	0.9520135	0.07953124	-0.2909635	-0.05182043
5	200	1650449516	524.844	189.588	847.656	-16.34146	-11.70732	1.585366	-474	-158	-577	0.9518472	0.07892087	-0.2916349	-0.05203406
5	200	1650449516	532.164	163.236	849.12	-16.82927	-10.73171	1.829268	-474	-158	-577	0.9517541	0.0784936	-0.2920316	-0.05215612
5	200	1650449516	523.38	172.752	864.492	-17.92683	-10.48781	1.341463	-475	-156	-575	0.9516264	0.07785273	-0.292581	-0.05236977
5	200	1650449516	527.772	167.628	877.668	-17.68293	-10	1.341463	-475	-156	-575	0.9515333	0.07739495	-0.2929777	-0.05252236
5	200	1650449516	552.66	190.32	878.4	-18.17073	-9.390244	1.585366	-476	-156	-574	0.9514183	0.07669301	-0.2934965	-0.05273598
5	200	1650449516	543.876	163.968	857.904	-18.90244	-9.390244	0.9756098	-476	-156	-574	0.9513455	0.07620472	-0.2938322	-0.05288858
5	200	1650449516	423.828	355.752	677.832	17.92683	-53.53659	-20.60976	-475	-155	-574	0.9504467	0.07721183	-0.2962737	-0.05395672
5	200	1650449516	536.556	76.86	914.268	10.36585	-57.31707	-17.80488	-475	-155	-574	0.9498354	0.07779168	-0.2979827	-0.05447554
5	200	1650449516	510.204	236.436	808.86	-4.878049	-47.92683	-14.14634	-481	-157	-571	0.9488661	0.07840206	-0.3007294	-0.0553911
5	200	1650449516	565.104	230.58	809.592	-20.97561	-31.95122	-4.756098	-481	-157	-571	0.9484378	0.07812738	-0.3020417	-0.05597095
5	200	1650449516	556.32	182.268	876.936	-30.60976	-25.60976	-5.853659	-483	-160	-575	0.9480549	0.07705925	-0.3033845	-0.05667287
5	200	1650449516	546.804	154.452	837.408	-32.56098	-27.07317	-7.439024	-483	-160	-575	0.9478133	0.07620472	-0.304239	-0.05728324
5	200	1650449516	562.176	192.516	862.296	-35	-27.56098	-5.609756	-485	-158	-567	0.9474453	0.07480086	-0.3055513	-0.05822932
5	200	1650449516	580.476	148.596	878.4	-35.60976	-28.78049	-5.243903	-485	-158	-567	0.9472006	0.07379375	-0.3064363	-0.05883968
5	200	1650449516	584.136	145.668	833.748	-31.70732	-30	-5.97561	-486	-155	-566	0.946779	0.07235939	-0.3079013	-0.05975525
5	200	1650449516	578.28	174.948	813.252	-27.31707	-28.78049	-5.365854	-486	-155	-566	0.9464942	0.0715659	-0.3088473	-0.06033509
5	200	1650449516	569.496	173.484	797.148	-19.7561	-26.09756	-5	-489	-154	-564	0.9460788	0.07065035	-0.3101901	-0.06103702
5	200	1650449516	584.136	148.596	781.044	-14.5122	-25	-4.512195	-489	-154	-564	0.9458041	0.07025361	-0.3110447	-0.06140324
5	200	1650449516	579.744	157.38	806.664	-10	-23.90244	-3.658537	-490	-156	-563	0.9453846	0.06991789	-0.3122959	-0.06189153
5	200	1650449516	538.02	148.596	802.272	-8.04878	-22.31707	-2.560976	-490	-156	-563	0.9451174	0.06976531	-0.3130894	-0.06213568
5	200	1650449516	569.496	139.08	822.036	-4.146341	-20.85366	-1.219512	-491	-155	-562	0.9447352	0.06967375	-0.3142186	-0.06234931
5	200	1650449516	567.3	157.38	813.252	-2.195122	-20.73171	-1.463415	-491	-155	-562	0.9444811	0.06970428	-0.314951	-0.06247139
5	200	1650449516	554.124	152.256	803.736	-0.4878049	-19.63415	-0.3658537	-492	-156	-560	0.9440945	0.06985686	-0.3160497	-0.06259345
5	200	1650449516	562.176	172.02	802.272	-0.9756098	-19.26829	0.2439024	-492	-156	-560	0.9438506	0.06994843	-0.3167516	-0.06262399
5	200	1650449516	573.156	173.484	807.396	-1.585366	-17.92683	1.463415	-494	-156	-562	0.9435029	0.0700705	-0.3177587	-0.06262399
5	200	1650449516	589.26	192.516	824.964	-2.073171	-17.07317	0.9756098	-494	-156	-562	0.9432926	0.07013154	-0.3183691	-0.06262399
5	200	1650449516	601.704	165.432	816.18	-2.439024	-15.97561	1.707317	-494	-156	-558	0.9429786	0.07019258	-0.3192846	-0.06262399
5	200	1650449516	594.384	151.524	793.488	-1.95122	-15.60976	2.195122	-494	-156	-558	0.9427775	0.07025362	-0.3198645	-0.06262399
5	200	1650449516	587.796	160.308	778.848	-0.8536586	-15.36585	2.926829	-496	-156	-558	0.9424843	0.07034516	-0.320719	-0.06256294
5	200	1650449516	605.364	191.052	807.396	-0.8536586	-15.36585	2.439024	-496	-156	-558	0.9422863	0.0704062	-0.3212989	-0.06250191
5	200	1650449516	589.26	173.484	773.724	-0.1219512	-16.34146	2.195122	-497	-157	-559	0.9419892	0.07055879	-0.3221534	-0.06241035
5	200	1650449516	606.828	152.256	807.396	0.2439024	-16.95122	2.317073	-497	-157	-559	0.9417753	0.07065034	-0.3227637	-0.06237983
5	200	1650449516	596.58	173.484	794.952	1.463415	-18.90244	2.926829	-498	-157	-557	0.9414322	0.07086398	-0.3237404	-0.06225776
5	200	1650449516	599.508	161.772	772.26	1.463415	-19.39024	2.804878	-498	-157	-557	0.9411873	0.07098605	-0.3244423	-0.0621662
5	200	1650449516	607.56	172.02	768.6	1.097561	-16.34146	3.292683	-499	-157	-555	0.9408315	0.07119969	-0.3254494	-0.06204413
5	200	1650449516	592.188	182.268	811.056	0.8536586	-13.29268	3.04878	-499	-157	-555	0.9406272	0.07135227	-0.3260292	-0.06192205
5	200	1650449516	605.364	207.888	818.376	-0.2439024	-10	2.317073	-500	-157	-555	0.9403882	0.07153538	-0.3267006	-0.06179997
5	200	1650449516	582.672	185.196	791.292	-0.4878049	-9.512196	2.195122	-500	-157	-555	0.9402474	0.07162694	-0.3270974	-0.06173895
5	200	1650449516	582.672	161.772	803.736	-1.097561	-8.414635	1.829268	-499	-157	-555	0.9400592	0.07177954	-0.3276162	-0.06167791
5	200	1650449516	592.92	186.66	800.076	-1.707317	-8.170732	1.463415	-499	-157	-555	0.9399371	0.07187109	-0.3279519	-0.06164739
5	200	1650449516	563.64	139.812	797.88	-1.95122	-6.829268	1.341463	-502	-156	-554	0.9397719	0.07199316	-0.3284097	-0.06158635
5	200	1650449516	591.456	188.124	771.528	-2.195122	-5.365854	1.219512	-502	-156	-554	0.9396819	0.07205421	-0.3286539	-0.06158636
5	200	1650449516	622.932	161.772	773.724	-2.317073	-2.560976	0.9756098	-502	-158	-554	0.9390823	0.07229835	-0.3303323	-0.06146428
5	200	1650449516	565.836	167.628	810.324	-1.829268	-1.097561	1.097561	-502	-158	-554	0.9392579	0.07278665	-0.3296915	-0.06164739
5	200	1650449516	577.548	151.524	801.54	-1.95122	-0.3658537	1.097561	-502	-158	-554	0.9396765	0.07211524	-0.3286844	-0.06143376
5	200	1650449516	579.012	144.204	794.22	-1.829268	-0.1219512	1.707317	-502	-158	-554	0.939696	0.07153539	-0.3288064	-0.06115909
5	200	1650449516	614.148	182.268	789.828	-1.097561	-0.4878049	1.341463	-503	-157	-552	0.9393493	0.07129125	-0.3299051	-0.06085391
5	200	1650449516	587.796	169.824	788.364	-1.829268	-0.7317073	1.707317	-503	-157	-552	0.9394836	0.07190161	-0.3293557	-0.06103702
5	200	1650449516	592.188	170.556	815.448	-2.804878	-1.585366	1.95122	-502	-158	-553	0.9393575	0.07217629	-0.329661	-0.06100651
5	200	1650449516	611.22	155.916	811.788	-3.170732	-2.317073	2.317073	-502	-158	-553	0.9392603	0.0717185	-0.3300882	-0.06073184
5	200	1650449516	598.044	173.484	810.324	-3.902439	-2.317073	1.95122	-501	-158	-552	0.939707	0.07147436	-0.3288675	-0.06073184
5	200	1650449516	600.24	180.804	820.572	-5	-1.585366	1.463415	-501	-158	-552	0.9398236	0.07168798	-0.3284707	-0.06082339
5	200	1650449516	565.104	167.628	848.388	-5.487805	-1.463415	1.219512	-502	-158	-552	0.9403398	0.07202367	-0.3268532	-0.06115909
5	200	1650449516	607.56	163.236	800.076	-5	-1.707317	0.4878049	-502	-158	-552	0.9401289	0.07171851	-0.3275552	-0.06100651
5	200	1650449516	628.788	173.484	828.624	-5.365854	-1.829268	-0.2439024	-503	-156	-553	0.9402086	0.07159642	-0.3273415	-0.06106754
5	200	1650449516	593.652	172.02	862.296	-5.853659	-2.073171	-0.2439024	-502	-157	-553	0.9402965	0.07193213	-0.3269753	-0.06128117
5	200	1650449516	608.292	182.268	794.22	-5.609756	-2.195122	-0.6097561	-502	-157	-553	0.9402035	0.07266457	-0.3270058	-0.0616779
5	200	1650449516	606.096	173.484	789.828	-5.731708	-2.560976	-0.8536586	-504	-157	-553	0.9399599	0.07254249	-0.3277383	-0.06164738
5	200	1650449516	605.364	157.38	778.848	-5.487805	-3.780488	-0.3658537	-504	-157	-553	0.9400796	0.0722068	-0.3274636	-0.06167791
5	200	1650449516	592.92	135.42	816.18	-4.634147	-5.121951	-0.4878049	-503	-158	-552	0.9400011	0.0722068	-0.3276772	-0.06173895
5	200	1650449516	601.704	161.772	796.416	-4.146341	-7.317073	0.1219512	-503	-158	-552	0.9398651	0.07223732	-0.3280435	-0.06183051
5	200	1650449516	581.94	144.204	811.788	-3.902439	-8.170732	0.3658537	-503	-159	-553	0.9397458	0.07223731	-0.3283792	-0.06186102
5	200	1650449516	595.116	166.164	799.344	-4.878049	-7.926829	0.4878049	-503	-159	-553	0.9395817	0.07223732	-0.328837	-0.06192206
5	200	1650449516	583.404	150.06	814.716	-4.878049	-7.804878	0.6097561	-504	-158	-551	0.9394728	0.07223731	-0.3291421	-0.06195258
5	200	1650449516	595.848	176.412	840.336	-4.390244	-7.926829	0.8536586	-504	-158	-551	0.9392999	0.0722068	-0.3296304	-0.06201361
5	200	1650449516	607.56	162.504	769.332	-3.902439	-7.195122	1.219512	-504	-158	-550	0.9392035	0.0722068	-0.3299051	-0.06201361
5	200	1650449516	577.548	201.3	788.364	-3.170732	-5.97561	1.463415	-504	-158	-550	0.9390509	0.07223731	-0.3303323	-0.06201361
5	200	1650449516	592.92	174.948	791.292	-2.682927	-4.878049	1.585366	-505	-158	-550	0.9389624	0.07229836	-0.3305765	-0.0619831
5	200	1650449516	603.9	177.876	784.704	-2.926829	-1.95122	0.9756098	-505	-158	-550	0.9387299	0.07306132	-0.3310343	-0.06216621
5	200	1650449516	631.716	172.02	808.128	-2.682927	0	0.7317073	-505	-157	-550	0.9383195	0.07345805	-0.3321024	-0.06219672
5	200	1650449516	609.024	163.236	824.964	-2.439024	1.707317	1.219512	-505	-157	-550	0.9382173	0.07263406	-0.3326518	-0.06176946
5	200	1650449516	596.58	169.824	829.356	-2.317073	1.463415	1.341463	-506	-159	-551	0.9383963	0.07269509	-0.3321329	-0.06176946
5	200	1650449516	618.54	186.66	792.756	-1.585366	1.219512	1.95122	-506	-159	-551	0.9380035	0.07351909	-0.3330485	-0.0618305
5	200	1650449516	622.2	164.7	794.952	-1.95122	0.3658537	1.463415	-506	-158	-552	0.9377324	0.07373272	-0.3337809	-0.06173895
5	200	1650449516	618.54	198.372	813.984	-1.95122	-1.097561	1.463415	-506	-158	-552	0.9377225	0.07388532	-0.333781	-0.06170844
5	200	1650449516	601.704	169.092	789.828	-1.95122	-1.219512	1.463415	-505	-158	-551	0.9374997	0.07391583	-0.3344218	-0.06158635
5	200	1650449516	606.828	187.392	800.076	-2.682927	0	1.097561	-505	-158	-551	0.9372645	0.07449568	-0.3349406	-0.06164739
5	200	1650449516	628.788	176.412	806.664	-2.926829	0.9756098	1.341463	-505	-159	-552	0.937205	0.07415998	-0.3352153	-0.06146428
5	200	1650449516	613.416	162.504	813.252	-3.658537	0.6097561	1.097561	-505	-159	-552	0.9372987	0.07318339	-0.3352458	-0.06103702
5	200	1650449516	597.312	182.268	805.2	-3.658537	0	0.9756098	-506	-159	-550	0.937415	0.07309183	-0.3349407	-0.06103702
5	200	1650449516	603.168	203.496	809.592	-4.390244	0.2439024	1.341463	-506	-159	-550	0.9374281	0.07394635	-0.334666	-0.06131168
5	200	1650449516	595.848	177.876	781.776	-4.878049	0.1219512	1.585366	-506	-159	-551	0.937335	0.07495346	-0.3346355	-0.06167791
5	200	1650449516	603.9	187.392	791.292	-5.853659	0.9756098	1.829268	-506	-159	-551	0.9373388	0.07565539	-0.3344218	-0.06192205
5	200	1650449516	584.136	164.7	800.808	-5.97561	0.3658537	1.829268	-506	-160	-552	0.9374384	0.07446516	-0.3344829	-0.06152532
5	200	1650449516	607.56	191.784	798.612	-5.731708	-0.6097561	1.463415	-506	-160	-552	0.9373891	0.0753502	-0.3343608	-0.06186102
5	200	1650449516	629.52	177.876	756.156	-6.463415	-1.585366	1.585366	-505	-160	-551	0.9369714	0.07544176	-0.3355205	-0.06179999
5	200	1650449516	598.044	195.444	760.548	-5.731708	-2.560976	1.463415	-505	-160	-551	0.9367949	0.07626574	-0.3357646	-0.06213568
5	200	1650449516	609.756	152.988	830.088	-5.487805	-2.560976	1.341463	-505	-158	-550	0.9370384	0.07565539	-0.3352458	-0.06201361
5	200	1650449516	590.724	183.732	792.756	-6.097561	-1.463415	1.097561	-505	-158	-550	0.9371865	0.07544176	-0.3348796	-0.06201361
5	200	1650449516	584.136	169.824	775.92	-6.341464	-0.7317073	1.219512	-506	-159	-549	0.9373077	0.07559434	-0.3344828	-0.06213568
5	200	1650449516	598.776	182.268	789.096	-6.829268	-0.2439024	1.097561	-506	-159	-549	0.9375513	0.07513657	-0.333903	-0.06213569
5	200	1650449516	611.952	158.844	775.92	-6.463415	-0.6097561	1.097561	-506	-158	-551	0.9375931	0.07480087	-0.3338725	-0.06207465
5	200	1650449516	620.004	183	779.58	-6.829268	-0.7317073	0.6097561	-506	-158	-551	0.9370823	0.0745262	-0.3353984	-0.06189154
5	200	1650449516	605.364	196.908	800.808	-7.195122	0	0.4878049	-506	-159	-550	0.9370735	0.07528916	-0.3351848	-0.06225776
5	200	1650449516	583.404	154.452	806.664	-7.073171	0.4878049	0.2439024	-506	-159	-550	0.9368562	0.07440412	-0.3360393	-0.06198309
5	200	1650449516	637.572	174.948	770.796	-7.195122	0.7317073	-0.1219512	-505	-158	-550	0.9365562	0.07434309	-0.3368938	-0.06195258
5	200	1650449516	603.9	189.588	804.468	-6.95122	1.95122	-0.6097561	-505	-158	-550	0.936958	0.07483139	-0.3355815	-0.06241035
5	200	1650449516	588.528	154.452	808.128	-7.073171	2.317073	0	-506	-158	-550	0.9373674	0.07443465	-0.3345134	-0.06247139
5	200	1650449516	577.548	174.948	812.52	-7.560976	-0.2439024	0.4878049	-506	-158	-550	0.9375189	0.07434309	-0.3340861	-0.06259346
5	200	1650449516	589.992	181.536	788.364	-8.04878	-0.4878049	0.8536586	-505	-158	-549	0.9374195	0.07461776	-0.3342692	-0.06277657
5	200	1650449516	589.26	154.452	802.272	-8.04878	-0.4878049	1.097561	-506	-158	-550	0.9376246	0.07358013	-0.3339641	-0.06256295
5	200	1650449516	617.076	157.38	772.992	-8.170732	-0.1219512	0.9756098	-506	-158	-550	0.9374345	0.0728782	-0.3346965	-0.0623188
5	200	1650449516	595.116	180.072	811.788	-7.682927	-0.3658537	1.341463	-507	-156	-549	0.9376417	0.07296976	-0.3340556	-0.06253243
5	200	1650449516	570.228	185.928	820.572	-7.926829	-0.4878049	1.707317	-507	-156	-549	0.9378766	0.07303079	-0.3333537	-0.06268502
5	200	1650449516	598.044	142.008	813.252	-8.780488	-0.7317073	2.073171	-506	-157	-548	0.9378402	0.0720542	-0.3337199	-0.06241035
5	200	1650449516	613.416	183.732	803.736	-9.268293	-1.097561	1.95122	-506	-157	-548	0.937816	0.07223732	-0.3337199	-0.06256295
5	200	1650449516	606.828	168.36	800.076	-8.902439	-0.1219512	1.95122	-506	-158	-549	0.93783	0.07211524	-0.3336894	-0.0626545
5	200	1650449516	602.436	147.132	818.376	-7.804878	-0.1219512	1.95122	-506	-158	-549	0.9383088	0.0712302	-0.3325602	-0.06250191
5	200	1650449516	603.9	179.34	806.664	-7.439024	0.1219512	1.95122	-506	-157	-549	0.9384279	0.07135227	-0.3321635	-0.06268502
5	200	1650449516	625.86	181.536	798.612	-8.04878	1.097561	1.95122	-506	-157	-549	0.9382275	0.07110813	-0.3328044	-0.06256294
5	200	1650449516	593.652	185.196	808.86	-8.292683	1.95122	1.463415	-506	-158	-549	0.9380256	0.07049776	-0.3335368	-0.06237983
5	200	1650449516	595.116	172.02	772.26	-7.560976	1.95122	1.097561	-506	-158	-549	0.9380076	0.07086398	-0.3334758	-0.06256295
5	200	1650449516	587.796	143.472	786.9	-7.560976	-0.6097561	2.439024	-506	-157	-548	0.9381322	0.0694296	-0.3335063	-0.06213568
5	200	1650449516	600.24	152.256	797.88	-7.439024	-2.317073	2.317073	-506	-157	-548	0.9380676	0.06897183	-0.3338114	-0.06198309
5	200	1650449516	603.9	160.308	856.44	-7.926829	-2.926829	2.926829	-507	-157	-546	0.938257	0.06884976	-0.3332926	-0.06204413
5	200	1650449516	612.684	168.36	787.632	-8.292683	-2.560976	2.682927	-507	-157	-546	0.9378309	0.06903288	-0.3344524	-0.06204413
5	200	1650449516	598.044	152.988	765.672	-8.536586	-2.560976	3.04878	-507	-156	-547	0.937602	0.06857509	-0.3352153	-0.06189154
5	200	1650449516	590.724	193.98	806.664	-7.926829	-2.682927	2.804878	-507	-156	-547	0.9375604	0.06964324	-0.3350322	-0.0623188
5	200	1650449516	614.88	172.752	804.468	-6.707317	-4.02439	2.682927	-506	-157	-547	0.9375147	0.06994843	-0.3350627	-0.06250191
5	200	1650449516	597.312	211.548	813.984	-5.853659	-4.634147	2.804878	-506	-157	-547	0.9374558	0.06988738	-0.3352458	-0.06247139
5	200	1650449516	596.58	166.164	797.88	-4.756098	-4.878049	2.804878	-507	-156	-548	0.9373552	0.06982636	-0.3355511	-0.06241035
5	200	1650449516	609.756	181.536	774.456	-3.780488	-4.756098	2.560976	-507	-156	-548	0.937285	0.06979583	-0.3357646	-0.06234932
5	200	1650449516	616.344	177.876	785.436	-3.414634	-4.146341	2.195122	-507	-156	-551	0.9371774	0.06982635	-0.3360698	-0.06228828
5	200	1650449516	618.54	158.844	786.168	-3.414634	-2.804878	2.317073	-507	-156	-551	0.9369754	0.06991789	-0.3366191	-0.06225775
5	200	1650449516	605.364	152.988	835.212	-4.268293	-1.341463	2.073171	-507	-156	-546	0.9374004	0.06979584	-0.3354595	-0.06225776
5	200	1650449516	606.096	172.02	782.508	-4.268293	-0.2439024	1.463415	-507	-156	-546	0.9373695	0.07000946	-0.33549	-0.0623188
5	200	1650449516	589.26	151.524	812.52	-4.634147	0.9756098	1.341463	-508	-156	-546	0.937972	0.06955168	-0.333903	-0.06228828
5	200	1650449516	635.376	157.38	802.272	-5.243903	2.317073	0.7317073	-508	-156	-546	0.9377239	0.06924651	-0.3346965	-0.06210517
5	200	1650449516	600.24	175.68	827.892	-5.97561	3.292683	0.7317073	-509	-156	-546	0.9380075	0.06884976	-0.3339946	-0.06204414
5	200	1650449516	618.54	158.112	802.272	-6.097561	3.902439	0.9756098	-509	-156	-546	0.9377961	0.06848354	-0.3346965	-0.06186102
5	200	1650449516	603.9	155.184	769.332	-5.609756	4.02439	0.9756098	-507	-156	-547	0.9374873	0.06778161	-0.3357646	-0.06152532
5	200	1650449516	634.644	173.484	798.612	-5.731708	3.292683	1.341463	-507	-156	-547	0.937109	0.06857509	-0.3366192	-0.06173895
5	200	1650449516	628.788	165.432	774.456	-5.853659	2.317073	2.195122	-508	-155	-548	0.9367107	0.06869716	-0.3377178	-0.06164739
5	200	1650449516	619.272	151.524	811.056	-6.585366	1.585366	2.195122	-508	-155	-548	0.9365891	0.06851406	-0.3381146	-0.06152532
5	200	1650449516	607.56	172.02	789.828	-7.926829	0.8536586	2.073171	-507	-155	-544	0.9364529	0.06875821	-0.3384198	-0.06164739
5	200	1650449516	586.332	155.916	829.356	-7.682927	-0.6097561	1.707317	-507	-155	-544	0.9368172	0.06888028	-0.3373516	-0.06183051
5	200	1650449516	613.416	155.916	780.312	-9.390244	-1.463415	1.829268	-507	-155	-548	0.9367124	0.06909391	-0.3375652	-0.06201361
5	200	1650449516	615.612	177.876	794.22	-10.12195	-1.463415	1.463415	-507	-155	-548	0.9364485	0.06939909	-0.3382061	-0.0621662
5	200	1650449516	614.148	180.804	822.768	-11.21951	-0.7317073	0.9756098	-507	-156	-546	0.9364209	0.06909391	-0.3383282	-0.06225776
5	200	1650449516	636.84	179.34	802.272	-11.46342	-0.1219512	0.9756098	-507	-156	-546	0.9364082	0.06891079	-0.3383892	-0.0623188
5	200	1650449516	623.664	172.752	808.128	-11.34146	0.9756098	0.6097561	-509	-154	-545	0.9364117	0.06857509	-0.3384198	-0.06247139
5	200	1650449516	622.2	155.184	753.96	-11.34146	2.317073	0.4878049	-509	-154	-545	0.9364322	0.06836146	-0.3383892	-0.06256294
5	200	1650449516	614.88	161.772	756.156	-10.60976	4.390244	0.3658537	-507	-155	-545	0.9364792	0.0680868	-0.3382977	-0.0626545
5	200	1650449516	619.272	161.772	791.292	-10.48781	5	0.4878049	-507	-155	-545	0.9365281	0.06793419	-0.3381756	-0.06274605
5	200	1650449516	587.064	172.02	775.188	-10.60976	6.829268	0.7317073	-508	-154	-546	0.9366301	0.06765954	-0.3379315	-0.06283762
5	200	1650449516	613.416	167.628	793.488	-11.46342	7.560976	0.4878049	-508	-154	-546	0.9367032	0.06747642	-0.3377483	-0.06292917
5	200	1650449516	650.748	163.236	788.364	-11.70732	8.658537	1.097561	-507	-154	-545	0.9368399	0.06717124	-0.3374127	-0.06302072
5	200	1650449516	609.756	142.008	829.356	-11.70732	8.780488	1.097561	-507	-154	-545	0.9369479	0.06698813	-0.337138	-0.06308176
5	200	1650449516	654.408	176.412	801.54	-12.56098	7.560976	0.4878049	-507	-152	-546	0.9370884	0.0666219	-0.3368022	-0.06317331
5	200	1650449516	637.572	170.556	804.468	-12.92683	7.926829	0.9756098	-507	-152	-546	0.9371743	0.06640828	-0.3365887	-0.06326487
5	200	1650449516	590.724	160.308	792.756	-11.82927	7.195122	1.219512	-507	-152	-547	0.9373124	0.06604207	-0.336253	-0.06338695
5	200	1650449516	587.796	160.308	759.816	-11.46342	5.853659	1.219512	-507	-152	-547	0.937389	0.06582843	-0.3360698	-0.06344798
5	200	1650449516	615.612	150.792	820.572	-10.36585	3.902439	0.9756098	-506	-153	-546	0.9374675	0.06555375	-0.3358867	-0.06353953
5	200	1650449516	627.324	156.648	794.22	-9.756098	3.292683	1.097561	-506	-153	-546	0.9373533	0.06534013	-0.3362529	-0.06350902
5	200	1650449516	600.972	145.668	818.376	-9.390244	2.439024	1.097561	-505	-152	-546	0.937628	0.06387524	-0.3358257	-0.06320383
5	200	1650449516	606.828	154.452	787.632	-9.512196	1.707317	1.463415	-505	-152	-546	0.9376255	0.06372266	-0.3358562	-0.06323436
5	200	1650449516	611.22	151.524	805.932	-10.12195	-0.6097561	1.707317	-506	-152	-546	0.9379579	0.06326487	-0.3350017	-0.06329539
5	200	1650449516	609.024	148.596	778.116	-11.46342	-1.219512	2.195122	-506	-152	-546	0.9379464	0.06308176	-0.3350627	-0.0633259
5	200	1650449516	622.932	163.236	800.808	-12.92683	-0.7317073	2.195122	-507	-151	-545	0.9379232	0.06268502	-0.3351848	-0.06341746
5	200	1650449516	610.488	167.628	817.644	-13.17073	-0.6097561	1.829268	-507	-151	-545	0.9379157	0.06241036	-0.3352458	-0.06347851
5	200	1650449516	606.828	160.308	778.116	-13.04878	0.1219512	1.341463	-507	-151	-543	0.9379139	0.0619831	-0.3353069	-0.06360058
5	200	1650449516	634.644	154.452	792.024	-12.19512	0.2439024	0.8536586	-507	-151	-543	0.9379148	0.06170843	-0.3353374	-0.06369213
5	200	1650449516	641.232	147.864	789.828	-9.268293	2.317073	-0.1219512	-507	-150	-543	0.9377738	0.06143376	-0.3357646	-0.06378368
5	200	1650449516	589.992	164.7	801.54	-10.12195	2.073171	0.9756098	-507	-150	-543	0.9379667	0.06146428	-0.3351848	-0.0639668
5	200	1650449517	629.52	152.256	811.788	-9.756098	2.195122	0.1219512	-506	-149	-544	0.9376987	0.06118961	-0.3359783	-0.06399731
5	200	1650449517	625.86	160.308	794.952	-9.634147	2.926829	0.3658537	-506	-149	-544	0.9374085	0.06131168	-0.3367412	-0.06411938
5	200	1650449517	608.292	165.432	785.436	-9.634147	4.268293	0.8536586	-504	-150	-545	0.937399	0.06237983	-0.3364666	-0.06466872
5	200	1650449517	605.364	152.988	781.044	-10.2439	5	0.7317073	-506	-150	-544	0.9376824	0.06179998	-0.3357952	-0.06460769
5	200	1650449517	607.56	177.876	808.128	-10.60976	5.487805	-0.3658537	-506	-150	-544	0.9377665	0.06155583	-0.3355815	-0.06472976
5	200	1650449517	612.684	158.844	820.572	-10.36585	6.219512	-0.8536586	-506	-150	-543	0.9378226	0.06140324	-0.3354289	-0.06485184
5	200	1650449517	579.012	193.98	803.004	-10	8.414635	3.780488	-506	-150	-543	0.9379284	0.06115909	-0.3351543	-0.06497391
5	200	1650449517	620.736	138.348	804.468	-11.34146	8.04878	3.170732	-506	-150	-544	0.9380228	0.06094546	-0.3349406	-0.06491287
5	200	1650449517	630.252	139.812	800.808	-7.682927	7.317073	-0.2439024	-506	-150	-544	0.9384125	0.0603351	-0.3339641	-0.06488236
5	200	1650449517	622.2	136.884	794.22	-6.219512	9.390244	-0.7317073	-505	-150	-544	0.9384862	0.06030457	-0.3337504	-0.06494339
5	200	1650449517	618.54	152.988	805.932	-2.926829	8.902439	-0.2439024	-505	-150	-544	0.9386212	0.06036562	-0.3333537	-0.06497391
5	200	1650449517	575.352	134.688	819.84	-1.341463	6.95122	1.219512	-505	-149	-546	0.9386913	0.06048769	-0.33314	-0.06494339
5	200	1650449517	587.796	108.336	782.508	1.95122	5.609756	2.439024	-505	-149	-546	0.9387597	0.06073184	-0.3329264	-0.06482132
5	200	1650449517	631.716	126.636	830.088	4.512195	4.268293	3.04878	-505	-150	-544	0.938789	0.06097598	-0.3328349	-0.0646382
5	200	1650449517	611.22	125.172	769.332	8.536586	0.9756098	4.634147	-505	-150	-544	0.9387782	0.0614948	-0.3328349	-0.0643025
5	200	1650449517	576.816	141.276	817.644	11.70732	-1.219512	5.97561	-505	-150	-546	0.9387365	0.06195258	-0.3329264	-0.06399731
5	200	1650449517	580.476	163.968	786.9	15.12195	-2.682927	7.317073	-505	-150	-546	0.9386278	0.06274606	-0.3332011	-0.06338695
5	200	1650449517	613.416	152.988	822.036	15.73171	-2.682927	8.292683	-505	-151	-546	0.9385545	0.0633259	-0.3333842	-0.06292916
5	200	1650449517	574.62	147.864	783.24	16.58537	-2.439024	8.902439	-505	-151	-546	0.9384348	0.06421094	-0.3336894	-0.06219672
5	200	1650449517	594.384	139.812	794.22	16.58537	-2.560976	8.536586	-504	-151	-547	0.93836	0.06482132	-0.3338725	-0.06170843
5	200	1650449517	612.684	176.412	805.2	15.85366	-3.780488	7.439024	-504	-151	-547	0.9382247	0.06573687	-0.3342082	-0.06097599
5	200	1650449517	613.416	159.576	801.54	15.36585	-4.634147	7.560976	-505	-151	-547	0.9381244	0.06631672	-0.3344523	-0.06054872
5	200	1650449517	609.756	129.564	817.644	12.80488	-6.95122	8.658537	-505	-151	-547	0.9379568	0.0671102	-0.3348796	-0.05990783
5	200	1650449517	624.396	155.916	770.796	13.04878	-8.536586	8.658537	-505	-152	-547	0.9378222	0.06756798	-0.3352458	-0.05945006
5	200	1650449517	621.468	167.628	783.972	11.21951	-9.512196	8.414635	-505	-152	-547	0.9375936	0.06823938	-0.3358562	-0.05883968
5	200	1650449517	609.756	132.492	738.588	10.60976	-8.04878	8.414635	-505	-153	-549	0.9374471	0.06866665	-0.336253	-0.05841244
5	200	1650449517	609.756	139.08	793.488	9.390244	-7.195122	7.804878	-505	-153	-549	0.937254	0.0692465	-0.3367718	-0.05783258
5	200	1650449517	606.828	169.092	802.272	8.902439	-6.707317	7.926829	-505	-153	-546	0.9371287	0.06961272	-0.3371074	-0.05746635
5	200	1650449517	604.632	153.72	794.22	8.170732	-6.341464	8.414635	-505	-153	-546	0.9369611	0.07010102	-0.3375652	-0.05691702
5	200	1650449517	606.828	137.616	797.148	8.780488	-6.097561	9.634147	-507	-153	-548	0.9368517	0.07043672	-0.3378704	-0.05648976
5	200	1650449517	638.304	138.348	730.536	10	-5.365854	9.878049	-507	-153	-548	0.9366968	0.07095554	-0.3382977	-0.05584888
5	200	1650449517	617.808	169.092	797.148	11.21951	-4.390244	11.09756	-505	-154	-548	0.9365987	0.07132176	-0.3385724	-0.05536058
5	200	1650449517	618.54	169.092	773.724	13.29268	-2.926829	11.95122	-505	-154	-548	0.9364859	0.07196265	-0.3388775	-0.05456709
5	200	1650449517	619.272	157.38	770.796	14.26829	-3.170732	11.95122	-506	-155	-549	0.9364045	0.07245094	-0.3390912	-0.05398724
5	200	1650449517	602.436	160.308	756.888	14.7561	-4.756098	10.60976	-506	-155	-549	0.936262	0.07318339	-0.3394574	-0.05316325
5	200	1650449517	619.272	162.504	794.22	15	-6.219512	9.390244	-504	-155	-548	0.9361486	0.07373272	-0.3397321	-0.05264443
5	200	1650449517	605.364	169.092	773.724	14.02439	-8.414635	8.658537	-504	-155	-548	0.9359366	0.07452621	-0.3402509	-0.05194251
5	200	1650449517	615.612	150.792	800.808	13.65854	-8.292683	8.536586	-507	-155	-548	0.9357785	0.0750145	-0.3406476	-0.05148473
5	200	1650449517	614.148	170.556	788.364	11.95122	-7.073171	9.390244	-507	-155	-548	0.9355671	0.07574694	-0.3411664	-0.05081332
5	200	1650449517	614.88	168.36	742.98	10	-6.097561	10.73171	-505	-156	-549	0.9354372	0.07614368	-0.3415021	-0.05035554
5	200	1650449517	622.2	168.36	767.868	9.02439	-4.634147	12.07317	-505	-156	-549	0.9352915	0.07663198	-0.3418989	-0.0496231
5	200	1650449517	624.396	176.412	789.828	9.756098	-3.658537	13.17073	-506	-156	-548	0.9352037	0.07696768	-0.342143	-0.04907376
5	200	1650449517	615.612	209.352	775.92	9.146341	-2.195122	13.90244	-506	-156	-548	0.9350986	0.07742546	-0.3424482	-0.04821924
5	200	1650449517	633.18	172.02	776.652	7.560976	-1.463415	14.02439	-507	-156	-547	0.9350497	0.07770013	-0.3426008	-0.0476394
5	200	1650449517	625.86	163.968	775.92	7.682927	1.707317	15.36585	-507	-156	-547	0.9349881	0.07803584	-0.3428144	-0.04675436
5	200	1650449517	611.952	178.608	813.984	7.682927	1.707317	14.14634	-506	-156	-548	0.9349868	0.07827998	-0.3428449	-0.04614399
5	200	1650449517	647.088	170.556	785.436	8.902439	-1.463415	10.48781	-505	-156	-549	0.9349297	0.07873776	-0.3429975	-0.04538102
5	200	1650449517	633.912	164.7	768.6	8.902439	-2.560976	10.97561	-505	-156	-549	0.934869	0.07907346	-0.3431501	-0.04489273
5	200	1650449517	613.416	166.896	787.632	7.682927	-4.02439	13.53659	-505	-158	-548	0.934757	0.07950072	-0.3434553	-0.04412977
5	200	1650449517	637.572	174.948	770.064	7.317073	-4.756098	13.78049	-505	-158	-548	0.9346723	0.07974488	-0.3436995	-0.04358044
5	200	1650449517	668.316	160.308	808.128	7.560976	-7.317073	13.78049	-506	-157	-549	0.934513	0.08008056	-0.3441572	-0.04275643
5	200	1650449517	650.748	167.628	776.652	8.292683	-8.902439	14.87805	-506	-157	-549	0.9343836	0.08032472	-0.3445235	-0.04217658
5	200	1650449517	637.572	191.052	772.26	8.04878	-12.80488	15.85366	-506	-156	-548	0.9341323	0.08069094	-0.3452254	-0.04129154
5	200	1650449517	639.036	171.288	748.104	7.682927	-15.73171	16.70732	-506	-156	-548	0.9339262	0.08090456	-0.3458052	-0.04068117
5	200	1650449517	631.716	192.516	770.064	16.46342	-16.46342	19.26829	-506	-156	-548	0.9335756	0.08127079	-0.3467818	-0.03967406
5	200	1650449517	614.148	154.452	628.056	44.7561	-12.56098	17.68293	-506	-156	-548	0.9332933	0.08236945	-0.3473922	-0.03869747
5	200	1650449517	629.52	154.452	789.096	46.82927	-13.41463	20.73171	-507	-158	-550	0.9328847	0.08432265	-0.3482162	-0.03689688
5	200	1650449517	675.636	183.732	778.848	27.31707	-23.41463	15.97561	-507	-158	-550	0.9325328	0.08551286	-0.3489791	-0.03582873
5	200	1650449517	689.544	169.092	736.392	47.19512	-29.26829	17.68293	-507	-158	-549	0.9318332	0.0872219	-0.3505356	-0.03469954
5	200	1650449517	607.56	177.876	682.224	51.21951	-30	22.19512	-507	-158	-549	0.9312996	0.08871731	-0.3516953	-0.03347881
5	200	1650449517	631.716	244.488	811.788	26.58537	-41.70732	24.02439	-509	-161	-548	0.9304715	0.09021272	-0.3536485	-0.03189184
5	200	1650449517	623.664	195.444	750.3	34.14634	-46.34146	25.73171	-509	-161	-548	0.9298254	0.0911588	-0.355205	-0.03073215
5	200	1650449517	653.676	188.124	693.936	33.78049	-52.43903	27.80488	-510	-161	-548	0.9287058	0.09265421	-0.3578906	-0.02890103
5	200	1650449517	633.18	87.84	660.996	42.43903	-57.68293	31.34146	-510	-161	-548	0.9278768	0.09366132	-0.3598743	-0.02761925
5	200	1650449517	564.372	174.948	757.62	35.12195	-69.39024	33.90244	-513	-163	-546	0.926482	0.09518722	-0.3632008	-0.02560503
5	200	1650449517	570.228	122.244	707.112	44.87805	-77.92683	33.29268	-513	-163	-546	0.9254001	0.09613331	-0.3657949	-0.0242317
5	200	1650449517	532.164	94.428	678.564	50.36586	-86.70732	33.78049	-514	-164	-544	0.9235657	0.09781183	-0.370098	-0.02206489
5	200	1650449517	526.308	196.908	767.868	60.85366	-91.70732	35	-514	-164	-544	0.9222059	0.09912412	-0.3732108	-0.02059999
5	200	1650449517	540.948	176.412	641.232	63.41463	-95.36585	35.12195	-519	-166	-540	0.9200177	0.1013825	-0.3780938	-0.01828059
5	200	1650449517	589.992	163.236	735.66	68.78049	-102.561	35.85366	-519	-166	-540	0.9184592	0.1030915	-0.3814813	-0.01663259
5	200	1650449517	603.9	163.968	712.236	76.70732	-99.63415	35.73171	-522	-167	-540	0.9159772	0.1060824	-0.3867001	-0.01397748
5	200	1650449517	655.14	171.288	655.14	80.2439	-94.7561	34.14634	-522	-167	-540	0.9143344	0.1082797	-0.3900265	-0.01214637
5	200	1650449517	660.996	226.188	657.336	79.5122	-82.07317	38.04878	-528	-169	-533	0.9120246	0.1115146	-0.3945738	-0.009338665
5	200	1650449517	668.316	266.448	700.524	58.29268	-73.90244	52.43903	-528	-169	-533	0.9106456	0.1132847	-0.39729	-0.007202368
5	200	1650449517	682.224	230.58	631.716	41.82927	-54.2683	71.46342	-531	-171	-532	0.9089848	0.114536	-0.4007691	-0.003509629
5	200	1650449517	739.32	210.816	652.212	39.14634	-53.17073	73.17073	-531	-171	-532	0.9080504	0.1149327	-0.4027833	-0.0008239999
5	200	1650449517	822.768	204.96	680.028	36.46342	-52.31707	81.09756	-532	-171	-531	0.906621	0.1153294	-0.4058657	0.003234962
5	200	1650449517	865.224	224.724	688.812	30.97561	-47.92683	79.5122	-532	-171	-531	0.9057173	0.115421	-0.4078189	0.006164739
5	200	1650449517	879.132	191.052	672.708	36.46342	-40.4878	73.17073	-531	-167	-529	0.9044629	0.1156652	-0.4104434	0.0102237
5	200	1650449517	853.512	185.196	655.14	40.36586	-32.07317	68.29269	-531	-167	-529	0.9037115	0.1160619	-0.4119083	0.01290933
5	200	1650449517	828.624	192.516	629.52	30.36585	-28.90244	60.36586	-531	-167	-528	0.9026881	0.1166112	-0.4138615	0.01657155
5	200	1650449517	804.468	172.752	622.2	23.53659	-19.26829	55.36586	-531	-167	-528	0.902151	0.1168554	-0.4148686	0.01876888
5	200	1650449517	723.948	126.636	633.912	11.09756	-15.60976	47.56098	-530	-166	-527	0.9015884	0.1168249	-0.4159673	0.02148503
5	200	1650449517	693.204	110.532	630.252	9.634147	-17.19512	45.4878	-530	-166	-527	0.901229	0.1166723	-0.4166997	0.02313303
5	200	1650449517	639.036	150.06	697.596	8.658537	-24.26829	49.02439	-531	-162	-531	0.9005958	0.1163976	-0.418012	0.0253914
5	200	1650449517	650.016	142.74	685.152	-0.1219512	-32.56098	48.17073	-531	-162	-531	0.9000738	0.1160314	-0.4191412	0.02691733
5	200	1650449517	625.86	166.164	767.868	-1.463415	-51.46342	50.97561	-530	-159	-525	0.8990399	0.1152379	-0.4214301	0.02905362
5	200	1650449517	625.86	200.568	841.068	7.073171	-63.90244	51.46342	-530	-159	-525	0.8980753	0.1147801	-0.4235054	0.03048799
5	200	1650449517	634.644	218.136	856.44	26.46342	-77.92683	51.95122	-530	-158	-524	0.8962342	0.1148106	-0.427198	0.03292947
5	200	1650449517	688.08	222.528	820.572	40	-82.07317	50.97561	-530	-158	-524	0.8947947	0.11536	-0.4299142	0.03476058
5	200	1650449517	717.36	223.26	838.872	55.85366	-81.21951	48.53659	-532	-158	-521	0.8924928	0.1168249	-0.4340342	0.03772088
5	200	1650449517	737.856	218.136	831.552	65	-76.34147	46.70732	-532	-158	-521	0.8909444	0.1182592	-0.4366283	0.03985718
5	200	1650449517	786.9	185.928	783.972	78.65854	-67.31708	41.70732	-535	-159	-518	0.8886772	0.1210059	-0.4401685	0.04315317
5	200	1650449517	781.044	227.652	756.156	89.14635	-62.19512	40.85366	-535	-159	-518	0.8872223	0.1232337	-0.4422437	0.0455031
5	200	1650449517	783.972	185.196	732	101.7073	-53.17073	38.78049	-538	-159	-516	0.8850881	0.1270791	-0.4450209	0.04925688
5	200	1650449517	794.952	142.74	688.812	111.9512	-46.58537	34.02439	-538	-159	-516	0.8837206	0.1300699	-0.4465774	0.05185095
5	200	1650449517	818.376	133.956	669.78	121.0976	-39.14634	31.21951	-539	-161	-517	0.8817564	0.135136	-0.4484695	0.05584887
5	200	1650449517	821.304	167.628	654.408	122.0732	-38.90244	33.65854	-539	-161	-517	0.880462	0.1386151	-0.4495986	0.05859553
5	200	1650449517	836.676	235.704	647.82	118.7805	-39.5122	42.56098	-542	-168	-519	0.8784614	0.1436506	-0.4513382	0.06295969
5	200	1650449517	833.748	254.004	627.324	116.5854	-39.2683	48.90244	-542	-168	-519	0.8770839	0.146794	-0.4525589	0.06607257
5	200	1650449517	871.812	243.756	579.744	114.6341	-36.34146	55.85366	-542	-170	-519	0.8750097	0.1512497	-0.4543596	0.07098605
5	200	1650449517	832.284	227.652	588.528	115.7317	-31.70732	58.29268	-542	-170	-519	0.8736742	0.154088	-0.4554277	0.07440414
5	200	1650449517	878.4	213.012	603.9	119.8781	-24.63415	56.95122	-542	-174	-520	0.8717248	0.1584521	-0.4567705	0.07968383
5	200	1650449517	879.132	193.98	600.972	123.9024	-19.63415	54.7561	-542	-174	-520	0.870478	0.161504	-0.4574419	0.08325449
5	200	1650449517	877.668	207.156	539.484	130.7317	-11.95122	52.56098	-543	-177	-522	0.8686978	0.1663259	-0.4580828	0.08865627
5	200	1650449517	860.832	219.6	565.836	132.439	-7.804878	51.70732	-543	-177	-522	0.8675504	0.1696829	-0.4582964	0.09234901
5	200	1650449517	859.368	235.704	539.484	115.122	-2.682927	49.63415	-543	-180	-524	0.8659496	0.1745353	-0.458388	0.09772027
5	200	1650449517	855.708	216.672	581.94	90.36585	1.219512	44.87805	-543	-180	-524	0.8651004	0.1770379	-0.4583575	0.1008332
5	200	1650449517	899.628	186.66	556.32	82.19512	6.463415	36.46342	-543	-182	-527	0.8641255	0.1799982	-0.4581744	0.104709
5	200	1650449517	917.196	185.928	551.196	96.82927	10.97561	31.46342	-543	-182	-527	0.8635193	0.1822565	-0.4578387	0.1072421
5	200	1650449517	871.08	185.928	426.756	105.2439	3.902439	37.56098	-541	-184	-530	0.862478	0.1862239	-0.4572283	0.1113315
5	200	1650449517	814.716	157.38	322.812	85.2439	-33.41463	53.78049	-541	-184	-530	0.8614082	0.1886349	-0.457564	0.1141392
5	200	1650449517	745.176	13.176	275.964	89.02439	-96.95123	80.48781	-541	-188	-533	0.8584712	0.1913816	-0.460799	0.1185949
5	200	1650449517	852.78	-8.052	307.44	105.7317	-112.0732	85.97561	-545	-190	-531	0.855703	0.1935789	-0.4641255	0.122013
5	200	1650449517	887.916	111.264	486.048	95.73171	-101.8293	83.04878	-545	-190	-531	0.8514376	0.1969665	-0.4691	0.1272927
5	200	1650449517	835.212	228.384	480.192	79.39024	-98.41463	79.5122	-548	-191	-527	0.8487443	0.1989197	-0.472274	0.1304666
5	200	1650449517	778.116	308.172	559.248	43.78049	-94.63415	84.14635	-548	-191	-527	0.8450645	0.2005066	-0.4770043	0.1346477
5	200	1650449517	783.972	270.84	588.528	29.7561	-95	89.02439	-549	-189	-524	0.8427638	0.2007508	-0.4802393	0.1371807
5	200	1650449517	845.46	233.508	486.048	20.4878	-92.31708	94.7561	-549	-189	-524	0.8393858	0.200415	-0.4851833	0.1409345
5	200	1650449517	855.708	208.62	465.552	19.26829	-86.58537	96.58537	-553	-186	-520	0.8371795	0.1999878	-0.4884182	0.1434675
5	200	1650449517	909.876	167.628	416.508	24.26829	-74.39024	97.92683	-553	-186	-520	0.8340783	0.1992553	-0.4928128	0.1474654
5	200	1650449517	890.112	208.62	513.132	36.21951	-67.43903	97.68293	-554	-182	-516	0.8320816	0.1989807	-0.4954069	0.1503952
5	200	1650449517	883.524	279.624	488.976	55.85366	-59.63415	99.39024	-554	-182	-516	0.8290605	0.1992248	-0.4988556	0.1552782
5	200	1650449517	874.008	278.16	570.228	63.90244	-50.2439	104.7561	-553	-178	-513	0.8270727	0.1996216	-0.5008393	0.1589404
5	200	1650449517	900.36	298.656	552.66	75.73171	-28.17073	113.6585	-553	-178	-513	0.8242419	0.200415	-0.5031892	0.1651051
5	200	1650449517	860.832	407.724	587.796	88.53659	10.12195	120.122	-552	-175	-514	0.8227615	0.2009339	-0.5037996	0.1699271
5	200	1650449517	934.764	270.108	455.304	84.2683	13.17073	118.9024	-552	-175	-514	0.8210863	0.2015748	-0.5036775	0.1774651
5	200	1650449517	914.268	169.092	477.996	91.58537	11.70732	120.7317	-548	-175	-518	0.8198786	0.202063	-0.5036164	0.1825922
5	200	1650449517	922.32	139.08	516.06	97.80488	14.5122	118.7805	-548	-175	-518	0.8179336	0.2031312	-0.5034333	0.190466
5	200	1650449517	937.692	155.184	446.52	97.19512	13.78049	118.4146	-545	-171	-520	0.8166423	0.2038942	-0.5032198	0.1956847
5	200	1650449517	910.608	236.436	489.708	94.2683	13.65854	126.0976	-545	-171	-520	0.8146094	0.2049318	-0.5029451	0.2036195
5	200	1650449517	908.412	266.448	499.224	94.39024	17.92683	133.0488	-540	-169	-525	0.8132142	0.2053896	-0.5027619	0.2091128
5	200	1650449517	898.896	248.88	523.38	88.78049	17.31707	143.1707	-540	-169	-525	0.8110802	0.2056642	-0.5024567	0.2176885
5	200	1650449517	860.832	166.164	524.112	86.34147	13.53659	145.9756	-536	-167	-529	0.809548	0.2056642	-0.5023957	0.2234565
5	200	1650449517	884.988	142.74	513.132	87.68293	9.268293	144.1463	-536	-167	-529	0.8070651	0.2056337	-0.5024873	0.2320933
5	200	1650449517	890.112	136.884	527.772	85.73171	3.780488	143.0488	-532	-163	-532	0.8053361	0.2056642	-0.5026093	0.2377392
5	200	1650449517	872.544	130.296	493.368	77.68293	-5.365854	145	-532	-163	-532	0.802529	0.2056032	-0.5031587	0.2459792
5	200	1650449517	860.832	139.812	520.452	68.41463	-12.07317	145.1219	-529	-160	-534	0.8005323	0.2053591	-0.5037996	0.2513199
5	200	1650449517	876.936	109.068	543.144	60.12195	-19.02439	145.4878	-529	-160	-534	0.7974105	0.2046877	-0.5051425	0.2589801
5	200	1650449517	850.584	40.992	467.016	51.95122	-31.82927	146.4634	-525	-156	-535	0.7951787	0.2040773	-0.5063631	0.2638935
5	200	1650449517	1026.996	-155.916	297.924	36.46342	-39.7561	114.8781	-525	-156	-535	0.7918118	0.2031312	-0.5086825	0.2702109
5	200	1650449517	1059.936	-171.288	341.112	30.36585	-44.02439	94.5122	-523	-150	-535	0.7897989	0.2027345	-0.5102389	0.2734458
