Timestamp	Acc.X	Acc.Y	Acc.Z	Gyro.X	Gyro.Y	Gyro.Z	Magn.X	Magn.Y	Magn.Z	Distance.x	Distance.y	P.0	P.1	P.2	P.3	P.4	P.5	P.6	P.7	P.8	P.9	P.10	P.11	P.12	P.13	P.14	P.15	PPG_RED.	PPG_IR.	PPG_GREEN.
1651665676937	335.744	560.712	549.488	3.43	0	0	340.5	-346.5	-606	0	0	0	0	0	0	0	0	0	0	0	0	0	0	0	0	0	0	1672	2001	0
1651665676947	301.584	548.024	766.16	8.61	-25.06	-1.68	-201	-117	-708	0	0	0	0	0	0	0	0	0	0	0	0	0	0	0	0	0	0	1686	1994	0
1651665676957	252.296	523.624	786.168	18.55	-58.17	-12.11	-204	-117	-709.5	0	0	0	0	0	0	0	0	0	0	0	0	0	0	0	0	0	0	1667	1978	0
1651665676967	309.88	475.312	771.04	5.95	-59.5	-16.03	-207	-118.5	-708	0	0	0	0	0	0	0	0	0	0	0	0	0	0	0	0	0	0	1670	1978	0
1651665676977	246.44	510.936	620.736	-2.45	-52.78	-12.6	-202.5	-126	-700.5	0	0	0	0	0	0	0	0	0	0	0	0	0	0	0	0	0	0	1673	1976	0
1651665676987	294.752	520.208	734.928	-10.78	-45.22	-10.5	-201	-130.5	-700.5	0	0	0	0	0	0	0	0	0	0	0	0	0	0	0	0	0	0	1672	1987	0
1651665676997	282.064	479.704	699.792	-16.03	-44.45	-10.01	-199.5	-133.5	-699	0	0	0	0	0	0	0	0	0	0	0	0	0	0	0	0	0	0	1661	1979	0
1651665677007	280.112	506.544	696.864	-37.17	-31.36	-1.33	-201	-135	-693	0	0	0	0	0	0	0	0	0	0	0	0	0	0	0	0	0	0	1662	1977	0
1651665677017	309.392	500.2	700.28	-36.12	-33.11	-6.65	-201	-136.5	-690	0	0	0	0	0	0	0	0	0	0	0	0	0	0	0	0	0	0	1672	1975	0
1651665677027	350.384	422.12	765.184	-37.38	-40.81	-8.68	-199.5	-136.5	-694.5	0	0	0	0	0	0	0	0	0	0	0	0	0	0	0	0	0	0	1676	1973	0
1651665677037	408.456	389.424	787.144	-32.41	-42.56	-6.86	-199.5	-139.5	-696	0	0	0	0	0	0	0	0	0	0	0	0	0	0	0	0	0	0	1669	1976	0
1651665677047	474.336	427	806.176	-19.04	-41.37	-12.46	-193.5	-145.5	-690	0	0	0	0	0	0	0	0	0	0	0	0	0	0	0	0	0	0	1671	1981	0
1651665677057	454.816	428.464	786.656	-10.64	-38.01	-26.88	-190.5	-147	-688.5	0	0	0	0	0	0	0	0	0	0	0	0	0	0	0	0	0	0	1673	1972	0
1651665677067	395.768	440.664	821.792	-4.13	-32.55	-35.49	-196.5	-147	-691.5	0	0	0	0	0	0	0	0	0	0	0	0	0	0	0	0	0	0	1679	1971	0
1651665677077	235.704	561.688	823.256	1.96	-19.74	-35.98	-196.5	-150	-691.5	0	0	0	0	0	0	0	0	0	0	0	0	0	0	0	0	0	0	1658	1955	0
1651665677087	337.696	555.344	873.032	10.08	-31.36	-37.03	-196.5	-153	-687	0	0	0	0	0	0	0	0	0	0	0	0	0	0	0	0	0	0	1660	1961	0
1651665677097	317.2	563.64	830.088	7.7	-37.59	-34.72	-199.5	-154.5	-685.5	0	0	0	0	0	0	0	0	0	0	0	0	0	0	0	0	0	0	1668	1957	0
1651665677107	343.552	502.152	756.888	-0.7	-30.66	-13.86	-196.5	-157.5	-685.5	0	0	0	0	0	0	0	0	0	0	0	0	0	0	0	0	0	0	1676	1957	0
1651665677117	387.472	460.184	808.616	-5.95	-29.75	-21.28	-199.5	-156	-679.5	0	0	0	0	0	0	0	0	0	0	0	0	0	0	0	0	0	0	1671	1962	0
1651665677127	434.32	519.72	772.992	-10.01	-26.04	-27.3	-202.5	-159	-675	0	0	0	0	0	0	0	0	0	0	0	0	0	0	0	0	0	0	1666	1949	0
1651665677137	399.184	511.912	799.344	-11.34	-20.65	-22.54	-204	-163.5	-679.5	0	0	0	0	0	0	0	0	0	0	0	0	0	0	0	0	0	0	1667	1957	0
1651665677148	386.984	488.488	813.984	-10.36	-3.71	-12.04	-204	-162	-679.5	0	0	0	0	0	0	0	0	0	0	0	0	0	0	0	0	0	0	1687	1957	0
1651665677158	406.504	497.76	801.296	-8.05	0.91	-9.52	-202.5	-163.5	-675	0	0	0	0	0	0	0	0	0	0	0	0	0	0	0	0	0	0	1669	1958	0
1651665677168	417.24	477.264	817.4	-5.74	4.9	-8.12	-207	-168	-675	0	0	0	0	0	0	0	0	0	0	0	0	0	0	0	0	0	0	1665	1949	0
1651665677178	427.976	473.36	832.04	-4.13	8.96	-7.07	-205.5	-166.5	-675	0	0	0	0	0	0	0	0	0	0	0	0	0	0	0	0	0	0	1670	1950	0
1651665677188	408.456	487.512	843.264	-4.06	12.11	-6.65	-207	-163.5	-681	0	0	0	0	0	0	0	0	0	0	0	0	0	0	0	0	0	0	1666	1952	0
1651665677198	381.616	499.224	849.608	-2.31	10.78	-3.43	-205.5	-168	-681	0	0	0	0	0	0	0	0	0	0	0	0	0	0	0	0	0	0	1668	1938	0
1651665677208	382.104	507.032	852.048	-4.06	8.89	-0.77	-201	-169.5	-679.5	0	0	0	0	0	0	0	0	0	0	0	0	0	0	0	0	0	0	1672	1944	0
1651665677218	365.024	508.496	835.944	-5.18	7.98	1.05	-201	-162	-679.5	0	0	0	0	0	0	0	0	0	0	0	0	0	0	0	0	0	0	1661	1938	0
1651665677228	370.392	500.688	827.16	-5.11	5.32	3.01	-199.5	-159	-678	0	0	0	0	0	0	0	0	0	0	0	0	0	0	0	0	0	0	1679	1937	0
1651665677238	386.496	513.376	815.448	-7	-0.56	4.41	-202.5	-159	-678	0	0	0	0	0	0	0	0	0	0	0	0	0	0	0	0	0	0	1678	1943	0
1651665677248	358.192	542.656	799.832	-12.53	0.98	7.28	-205.5	-160.5	-679.5	0	0	0	0	0	0	0	0	0	0	0	0	0	0	0	0	0	0	1670	1927	0
1651665677258	301.096	563.152	827.16	-9.45	-7.49	14.56	-201	-166.5	-679.5	0	0	0	0	0	0	0	0	0	0	0	0	0	0	0	0	0	0	1665	1943	0
1651665677268	365.024	532.896	827.648	-3.43	-14.28	22.19	-196.5	-165	-679.5	0	0	0	0	0	0	0	0	0	0	0	0	0	0	0	0	0	0	1688	1932	0
1651665677278	375.272	475.312	767.624	-1.68	-5.53	16.8	-199.5	-163.5	-678	0	0	0	0	0	0	0	0	0	0	0	0	0	0	0	0	0	0	1666	1933	0
1651665677288	368.44	485.072	775.432	3.29	-3.08	14.56	-201	-160.5	-678	0	0	0	0	0	0	0	0	0	0	0	0	0	0	0	0	0	0	1666	1930	0
1651665677298	360.632	497.76	764.208	5.88	-1.19	12.11	-195	-157.5	-681	0	0	0	0	0	0	0	0	0	0	0	0	0	0	0	0	0	0	1678	1935	0
1651665677308	340.624	498.736	763.72	4.13	0.35	12.81	-190.5	-160.5	-682.5	0	0	0	0	0	0	0	0	0	0	0	0	0	0	0	0	0	0	1676	1921	0
1651665677318	360.144	470.92	760.304	2.1	-2.24	13.65	-195	-159	-681	0	0	0	0	0	0	0	0	0	0	0	0	0	0	0	0	0	0	1671	1932	0
1651665677328	395.28	432.856	772.992	1.19	-3.92	12.32	-195	-157.5	-675	0	0	0	0	0	0	0	0	0	0	0	0	0	0	0	0	0	0	1678	1933	0
1651665677338	413.336	433.832	774.944	-0.07	-2.73	8.47	-196.5	-160.5	-676.5	0	0	0	0	0	0	0	0	0	0	0	0	0	0	0	0	0	0	1681	1931	0
1651665677348	414.8	437.736	789.096	-2.03	-0.77	4.83	-199.5	-168	-679.5	0	0	0	0	0	0	0	0	0	0	0	0	0	0	0	0	0	0	1693	1927	0
1651665677358	396.256	455.304	812.032	-3.57	0.49	1.75	-196.5	-166.5	-676.5	0	0	0	0	0	0	0	0	0	0	0	0	0	0	0	0	0	0	1674	1926	0
1651665677368	378.688	503.128	832.528	-6.09	-1.96	1.19	-199.5	-162	-678	0	0	0	0	0	0	0	0	0	0	0	0	0	0	0	0	0	0	1686	1936	0
1651665677378	359.168	504.104	856.44	-10.36	-5.11	2.38	-198	-160.5	-679.5	0	0	0	0	0	0	0	0	0	0	0	0	0	0	0	0	0	0	1678	1942	0
1651665677388	383.08	485.56	822.768	-12.25	-9.87	2.66	-190.5	-160.5	-679.5	0	0	0	0	0	0	0	0	0	0	0	0	0	0	0	0	0	0	1685	1951	0
1651665677398	398.696	485.072	785.68	-10.29	-11.41	2.87	-187.5	-168	-676.5	0	0	0	0	0	0	0	0	0	0	0	0	0	0	0	0	0	0	1696	1962	0
1651665677408	395.28	480.192	803.736	-9.38	-8.82	4.13	-189	-165	-673.5	0	0	0	0	0	0	0	0	0	0	0	0	0	0	0	0	0	0	1701	1976	0
1651665677418	390.4	493.368	816.424	-5.67	-7.14	3.64	-190.5	-165	-678	0	0	0	0	0	0	0	0	0	0	0	0	0	0	0	0	0	0	1704	1989	0
1651665677428	393.816	485.56	824.232	-2.52	-8.75	2.66	-192	-172.5	-682.5	0	0	0	0	0	0	0	0	0	0	0	0	0	0	0	0	0	0	1698	2001	0
1651665677438	405.528	477.264	808.128	-0.35	-8.47	0.07	-195	-174	-678	0	0	0	0	0	0	0	0	0	0	0	0	0	0	0	0	0	0	1705	2019	0
1651665677448	408.456	470.432	792.024	1.54	-6.16	-2.66	-192	-171	-673.5	0	0	0	0	0	0	0	0	0	0	0	0	0	0	0	0	0	0	1694	2025	0
1651665677458	406.992	489.464	791.536	3.92	-1.68	-4.97	-189	-169.5	-676.5	0	0	0	0	0	0	0	0	0	0	0	0	0	0	0	0	0	0	1709	2028	0
1651665677468	400.16	489.952	792.024	6.58	2.52	-4.83	-190.5	-165	-679.5	0	0	0	0	0	0	0	0	0	0	0	0	0	0	0	0	0	0	1716	2021	0
1651665677478	402.112	493.856	797.88	6.16	6.16	-3.85	-190.5	-168	-682.5	0	0	0	0	0	0	0	0	0	0	0	0	0	0	0	0	0	0	1707	2047	0
1651665677488	386.496	500.2	806.664	5.81	8.05	-5.53	-186	-175.5	-675	0	0	0	0	0	0	0	0	0	0	0	0	0	0	0	0	0	0	1707	2058	0
1651665677498	386.984	488.976	817.888	5.18	7.07	-7.42	-187.5	-171	-673.5	0	0	0	0	0	0	0	0	0	0	0	0	0	0	0	0	0	0	1712	2053	0
1651665677508	403.576	489.952	807.64	6.51	3.71	-10.08	-195	-165	-678	0	0	0	0	0	0	0	0	0	0	0	0	0	0	0	0	0	0	1710	2063	0
1651665677518	403.088	467.992	828.136	13.72	-14.91	-18.97	-192	-165	-678	0	0	0	0	0	0	0	0	0	0	0	0	0	0	0	0	0	0	1717	2056	0
1651665677528	410.408	498.248	882.304	9.8	-2.59	-22.12	-192	-168	-675	0	0	0	0	0	0	0	0	0	0	0	0	0	0	0	0	0	0	1717	2065	0
1651665677538	442.616	517.28	885.72	16.73	-8.19	-28	-201	-171	-675	0	0	0	0	0	0	0	0	0	0	0	0	0	0	0	0	0	0	1704	2068	0
1651665677548	399.672	437.248	890.112	25.69	-24.22	-9.03	-204	-172.5	-673.5	0	0	0	0	0	0	0	0	0	0	0	0	0	0	0	0	0	0	1711	2056	0
1651665677558	344.04	475.8	901.336	24.36	-16.1	-31.43	-201	-168	-675	0	0	0	0	0	0	0	0	0	0	0	0	0	0	0	0	0	0	1707	2054	0
1651665677568	362.584	520.696	875.472	15.61	-9.59	-40.74	-202.5	-162	-678	0	0	0	0	0	0	0	0	0	0	0	0	0	0	0	0	0	0	1705	2050	0
1651665677578	350.384	577.304	883.768	12.32	-8.12	-39.27	-208.5	-165	-676.5	0	0	0	0	0	0	0	0	0	0	0	0	0	0	0	0	0	0	1700	2044	0
1651665677588	349.896	574.864	854.488	13.44	-6.93	-38.64	-207	-166.5	-670.5	0	0	0	0	0	0	0	0	0	0	0	0	0	0	0	0	0	0	1707	2028	0
1651665677598	349.408	594.872	847.168	16.94	-11.41	-40.67	-214.5	-166.5	-672	0	0	0	0	0	0	0	0	0	0	0	0	0	0	0	0	0	0	1703	2008	0
1651665677608	328.912	625.616	898.408	15.47	-17.78	-38.01	-220.5	-165	-670.5	0	0	0	0	0	0	0	0	0	0	0	0	0	0	0	0	0	0	1694	2023	0
1651665677618	414.8	744.2	1114.592	45.36	-35.14	-43.05	-222	-166.5	-672	0	0	0	0	0	0	0	0	0	0	0	0	0	0	0	0	0	0	1709	2012	0
1651665677628	326.472	686.616	863.76	28.84	-46.06	-46.34	-229.5	-166.5	-667.5	0	0	0	0	0	0	0	0	0	0	0	0	0	0	0	0	0	0	1712	2006	0
1651665677638	415.776	879.864	835.456	3.29	-88.41	59.92	-232.5	-171	-660	0	0	0	0	0	0	0	0	0	0	0	0	0	0	0	0	0	0	1703	2014	0
1651665677648	144.936	378.688	714.92	-0.42	-65.03	9.45	-228	-175.5	-654	0	0	0	0	0	0	0	0	0	0	0	0	0	0	0	0	0	0	1704	2004	0
1651665677658	303.048	682.224	811.544	26.67	-44.31	-34.44	-225	-181.5	-648	0	0	0	0	0	0	0	0	0	0	0	0	0	0	0	0	0	0	1707	1997	0
1651665677668	309.392	836.92	979.416	45.57	-34.02	-43.82	-225	-187.5	-646.5	0	0	0	0	0	0	0	0	0	0	0	0	0	0	0	0	0	0	1708	1999	0
1651665677678	163.968	843.752	1119.96	40.18	-46.97	-26.81	-228	-184.5	-642	0	0	0	0	0	0	0	0	0	0	0	0	0	0	0	0	0	0	1699	2004	0
1651665677688	350.384	797.392	1016.504	48.93	-70.14	-31.64	-234	-186	-628.5	0	0	0	0	0	0	0	0	0	0	0	0	0	0	0	0	0	0	1698	1995	0
1651665677698	312.808	791.048	913.048	56.42	-93.8	-59.99	-241.5	-192	-625.5	0	0	0	0	0	0	0	0	0	0	0	0	0	0	0	0	0	0	1700	1994	0
1651665677708	482.632	742.248	962.336	27.86	-100.24	-68.88	-246	-190.5	-633	0	0	0	0	0	0	0	0	0	0	0	0	0	0	0	0	0	0	1696	1995	0
1651665677718	475.312	558.76	1016.504	63.28	-91.63	-62.3	-253.5	-195	-625.5	0	0	0	0	0	0	0	0	0	0	0	0	0	0	0	0	0	0	1699	1990	0
1651665677728	3741.496	1207.312	630.984	11.27	-66.36	-39.69	-262.5	-202.5	-613.5	0	0	0	0	0	0	0	0	0	0	0	0	0	0	0	0	0	0	1700	1977	0
1651665677738	1041.88	439.688	591.456	-19.39	-85.75	-99.82	-262.5	-204	-606	0	0	0	0	0	0	0	0	0	0	0	0	0	0	0	0	0	0	1708	1978	0
1651665677748	1253.184	244.488	494.832	-16.24	-60.48	-101.29	-259.5	-205.5	-598.5	0	0	0	0	0	0	0	0	0	0	0	0	0	0	0	0	0	0	1691	1974	0
1651665677758	1188.28	71.736	527.04	4.48	-13.09	-133.21	-270	-208.5	-594	0	0	0	0	0	0	0	0	0	0	0	0	0	0	0	0	0	0	1704	1979	0
1651665677768	896.456	182.512	585.112	-21.35	46.83	-208.74	-285	-207	-592.5	0	0	0	0	0	0	0	0	0	0	0	0	0	0	0	0	0	0	1698	1976	0
1651665677778	667.584	349.896	453.84	-15.12	70.07	-238.42	-297	-202.5	-595.5	0	0	0	0	0	0	0	0	0	0	0	0	0	0	0	0	0	0	1703	1970	0
1651665677788	368.44	381.616	482.632	-12.6	92.19	-246.68	-304.5	-190.5	-594	0	0	0	0	0	0	0	0	0	0	0	0	0	0	0	0	0	0	1710	1981	0
1651665677798	151.28	525.576	556.808	-26.18	89.81	-246.68	-316.5	-178.5	-595.5	0	0	0	0	0	0	0	0	0	0	0	0	0	0	0	0	0	0	1698	1979	0
1651665677808	96.624	638.792	587.064	-36.33	88.27	-242.27	-330	-169.5	-597	0	0	0	0	0	0	0	0	0	0	0	0	0	0	0	0	0	0	1698	1995	0
1651665677818	99.552	597.8	597.312	-41.23	80.36	-232.75	-343.5	-160.5	-607.5	0	0	0	0	0	0	0	0	0	0	0	0	0	0	0	0	0	0	1707	1994	0
1651665677828	167.872	520.208	560.712	-51.87	72.38	-237.65	-351	-145.5	-616.5	0	0	0	0	0	0	0	0	0	0	0	0	0	0	0	0	0	0	1708	1981	0
1651665677838	278.648	445.544	516.304	-61.11	72.73	-259	-352.5	-129	-616.5	0	0	0	0	0	0	0	0	0	0	0	0	0	0	0	0	0	0	1712	1976	0
1651665677848	271.816	470.92	510.936	-56.35	64.96	-278.32	-367.5	-112.5	-624	0	0	0	0	0	0	0	0	0	0	0	0	0	0	0	0	0	0	1710	1983	0
1651665677858	339.16	510.448	572.424	-50.61	57.54	-286.16	-382.5	-94.5	-628.5	0	0	0	0	0	0	0	0	0	0	0	0	0	0	0	0	0	0	1706	1977	0
1651665677868	350.872	523.624	703.696	-39.62	68.95	-290.22	-393	-79.5	-627	0	0	0	0	0	0	0	0	0	0	0	0	0	0	0	0	0	0	1721	1980	0
1651665677878	138.592	569.496	796.904	-3.92	92.82	-279.51	-403.5	-64.5	-631.5	0	0	0	0	0	0	0	0	0	0	0	0	0	0	0	0	0	0	1714	1964	0
1651665677888	-20.008	698.328	804.224	24.99	96.53	-262.99	-406.5	-48	-631.5	0	0	0	0	0	0	0	0	0	0	0	0	0	0	0	0	0	0	1703	1952	0
1651665677898	-379.176	819.84	765.672	23.73	77.91	-234.85	-421.5	-31.5	-634.5	0	0	0	0	0	0	0	0	0	0	0	0	0	0	0	0	0	0	1700	1945	0
1651665677908	-506.056	814.472	796.416	8.68	46.2	-196.49	-426	-16.5	-628.5	0	0	0	0	0	0	0	0	0	0	0	0	0	0	0	0	0	0	1699	1919	0
1651665677918	-471.408	786.656	699.792	-10.29	5.74	-175.77	-430.5	3	-631.5	0	0	0	0	0	0	0	0	0	0	0	0	0	0	0	0	0	0	1698	1910	0
1651665677928	-316.712	588.528	652.456	-30.73	-32.06	-159.95	-432	13.5	-634.5	0	0	0	0	0	0	0	0	0	0	0	0	0	0	0	0	0	0	1700	1887	0
1651665677938	-22.448	400.16	575.352	-37.66	-59.36	-161.98	-430.5	19.5	-637.5	0	0	0	0	0	0	0	0	0	0	0	0	0	0	0	0	0	0	1683	1860	0
1651665677948	78.568	298.168	525.576	-29.05	-44.24	-177.73	-438	30	-640.5	0	0	0	0	0	0	0	0	0	0	0	0	0	0	0	0	0	0	1679	1838	0
1651665677958	-8.784	339.648	337.696	-12.67	-8.61	-151.48	-445.5	37.5	-637.5	0	0	0	0	0	0	0	0	0	0	0	0	0	0	0	0	0	0	1679	1814	0
1651665677968	-97.6	516.792	699.304	2.59	-2.8	-167.65	-447	43.5	-637.5	0	0	0	0	0	0	0	0	0	0	0	0	0	0	0	0	0	0	1667	1783	0
1651665677978	-309.88	565.104	763.72	7.7	-3.43	-159.32	-450	55.5	-640.5	0	0	0	0	0	0	0	0	0	0	0	0	0	0	0	0	0	0	1660	1746	0
1651665677988	-417.728	549	779.336	15.75	-16.87	-128.1	-450	64.5	-636	0	0	0	0	0	0	0	0	0	0	0	0	0	0	0	0	0	0	1653	1709	0
1651665677998	-501.176	515.816	740.296	8.47	-26.04	-122.99	-448.5	69	-634.5	0	0	0	0	0	0	0	0	0	0	0	0	0	0	0	0	0	0	1652	1676	0
1651665678008	-620.248	532.896	686.128	2.31	-50.82	-119.91	-448.5	78	-637.5	0	0	0	0	0	0	0	0	0	0	0	0	0	0	0	0	0	0	1651	1653	0
1651665678018	-538.752	491.416	533.384	0.49	-58.73	-111.86	-456	79.5	-637.5	0	0	0	0	0	0	0	0	0	0	0	0	0	0	0	0	0	0	1652	1621	0
1651665678028	-634.4	488.488	274.744	-8.33	-49.28	-110.6	-457.5	81	-639	0	0	0	0	0	0	0	0	0	0	0	0	0	0	0	0	0	0	1655	1606	0
1651665678038	-985.272	608.536	461.648	-57.61	-30.1	-93.52	-457.5	85.5	-643.5	0	0	0	0	0	0	0	0	0	0	0	0	0	0	0	0	0	0	1650	1574	0
1651665678048	-301.584	513.864	853.024	-58.52	-50.05	-98.42	-460.5	88.5	-640.5	0	0	0	0	0	0	0	0	0	0	0	0	0	0	0	0	0	0	1646	1550	0
1651665678058	76.128	423.096	772.504	32.48	-44.45	-118.16	-460.5	90	-639	0	0	0	0	0	0	0	0	0	0	0	0	0	0	0	0	0	0	1635	1513	0
1651665678068	-398.696	28.792	-31.232	-8.96	-104.79	-78.61	-462	96	-643.5	0	0	0	0	0	0	0	0	0	0	0	0	0	0	0	0	0	0	1637	1494	0
1651665678078	-504.104	-2111.576	-542.168	-79.94	-86.38	-83.58	-460.5	100.5	-640.5	0	0	0	0	0	0	0	0	0	0	0	0	0	0	0	0	0	0	1642	1452	0
1651665678088	-466.04	1182.424	837.408	-134.4	-8.05	-195.37	-454.5	96	-645	0	0	0	0	0	0	0	0	0	0	0	0	0	0	0	0	0	0	1634	1432	0
1651665678098	-327.448	439.2	496.784	51.17	-84.98	-82.95	-451.5	100.5	-655.5	0	0	0	0	0	0	0	0	0	0	0	0	0	0	0	0	0	0	1639	1418	0
1651665678108	-385.032	479.704	430.416	-38.15	-84.63	-19.88	-445.5	108	-655.5	0	0	0	0	0	0	0	0	0	0	0	0	0	0	0	0	0	0	1645	1417	0
1651665678118	-409.432	623.664	602.192	-115.57	-29.68	-27.72	-441	105	-654	0	0	0	0	0	0	0	0	0	0	0	0	0	0	0	0	0	0	1643	1392	0
1651665678128	-390.888	548.024	987.224	-142.1	-27.37	-45.22	-436.5	108	-658.5	0	0	0	0	0	0	0	0	0	0	0	0	0	0	0	0	0	0	1637	1383	0
1651665678138	-282.552	695.4	481.168	-115.22	-13.93	-58.87	-432	106.5	-660	0	0	0	0	0	0	0	0	0	0	0	0	0	0	0	0	0	0	1640	1365	0
1651665678148	-540.704	514.84	1406.416	-114.03	67.27	7	-427.5	105	-664.5	0	0	0	0	0	0	0	0	0	0	0	0	0	0	0	0	0	0	1626	1364	0
1651665678158	104.92	155.184	1403.976	-72.24	5.46	-74.2	-421.5	111	-681	0	0	0	0	0	0	0	0	0	0	0	0	0	0	0	0	0	0	1626	1368	0
1651665678168	608.536	-447.496	1618.208	16.31	-99.68	-252.28	-421.5	120	-690	0	0	0	0	0	0	0	0	0	0	0	0	0	0	0	0	0	0	1618	1386	0
1651665678178	-201.056	323.544	245.952	35.91	-163.52	-341.53	-414	124.5	-690	0	0	0	0	0	0	0	0	0	0	0	0	0	0	0	0	0	0	1598	1390	0
1651665678188	-251.32	576.816	965.264	-68.11	-127.4	-261.52	-408	123	-685.5	0	0	0	0	0	0	0	0	0	0	0	0	0	0	0	0	0	0	1589	1415	0
1651665678198	-459.208	171.288	556.808	-113.68	-104.93	-173.53	-412.5	132	-685.5	0	0	0	0	0	0	0	0	0	0	0	0	0	0	0	0	0	0	1592	1424	0
1651665678208	-345.016	471.408	416.752	-187.74	-21.84	-148.96	-406.5	136.5	-688.5	0	0	0	0	0	0	0	0	0	0	0	0	0	0	0	0	0	0	1583	1423	0
1651665678218	-424.072	184.464	691.496	-203.35	28.84	-113.05	-397.5	135	-694.5	0	0	0	0	0	0	0	0	0	0	0	0	0	0	0	0	0	0	1585	1397	0
1651665678228	-322.568	139.568	789.584	-192.36	31.99	-86.87	-385.5	141	-708	0	0	0	0	0	0	0	0	0	0	0	0	0	0	0	0	0	0	1578	1396	0
1651665678238	-500.688	37.576	657.336	-185.64	-3.57	-114.8	-369	144	-718.5	0	0	0	0	0	0	0	0	0	0	0	0	0	0	0	0	0	0	1584	1402	0
1651665678248	-468.968	655.872	1216.096	-156.59	-171.43	-190.96	-357	148.5	-724.5	0	0	0	0	0	0	0	0	0	0	0	0	0	0	0	0	0	0	1590	1407	0
1651665678258	-443.104	96.136	1420.08	-115.43	-440.51	-290.43	-343.5	153	-732	0	0	0	0	0	0	0	0	0	0	0	0	0	0	0	0	0	0	1596	1415	0
1651665678268	1353.224	-312.32	2273.104	-137.13	-966.91	-569.52	-330	142.5	-738	0	0	0	0	0	0	0	0	0	0	0	0	0	0	0	0	0	0	1611	1434	0
1651665678278	-652.456	378.2	2140.368	137.55	-1028.79	-588.77	-319.5	103.5	-736.5	0	0	0	0	0	0	0	0	0	0	0	0	0	0	0	0	0	0	1617	1455	0
1651665678288	-2006.168	134.2	1379.088	197.26	-1082.34	-646.31	-312	43.5	-721.5	0	0	0	0	0	0	0	0	0	0	0	0	0	0	0	0	0	0	1621	1469	0
1651665678298	49.288	577.792	347.944	173.81	-826.21	-503.72	-325.5	-7.5	-691.5	0	0	0	0	0	0	0	0	0	0	0	0	0	0	0	0	0	0	1632	1505	0
1651665678308	656.36	-624.152	-268.888	199.5	-415.03	-292.95	-360	-51	-655.5	0	0	0	0	0	0	0	0	0	0	0	0	0	0	0	0	0	0	1639	1546	0
1651665678318	94.672	314.272	467.016	96.25	-236.6	-185.92	-387	-79.5	-628.5	0	0	0	0	0	0	0	0	0	0	0	0	0	0	0	0	0	0	1642	1572	0
1651665678328	636.352	-222.528	232.776	45.43	-127.4	51.03	-405	-93	-615	0	0	0	0	0	0	0	0	0	0	0	0	0	0	0	0	0	0	1659	1577	0
1651665678338	981.856	37.576	525.576	59.57	-49.91	-8.82	-409.5	-100.5	-603	0	0	0	0	0	0	0	0	0	0	0	0	0	0	0	0	0	0	1661	1571	0
1651665678348	691.496	440.664	916.464	-14.49	22.75	84.07	-405	-108	-592.5	0	0	0	0	0	0	0	0	0	0	0	0	0	0	0	0	0	0	1656	1519	0
1651665678358	562.664	221.064	1009.184	-89.6	-28.63	159.6	-408	-112.5	-595.5	0	0	0	0	0	0	0	0	0	0	0	0	0	0	0	0	0	0	1641	1473	0
1651665678368	315.248	156.16	1239.52	-94.57	-148.82	179.13	-405	-120	-603	0	0	0	0	0	0	0	0	0	0	0	0	0	0	0	0	0	0	1644	1451	0
1651665678378	401.136	-140.056	1132.16	-114.1	-279.72	154.7	-388.5	-132	-604.5	0	0	0	0	0	0	0	0	0	0	0	0	0	0	0	0	0	0	1644	1426	0
1651665678388	1097.024	-102.968	1159.488	-110.46	-334.39	80.85	-378	-150	-592.5	0	0	0	0	0	0	0	0	0	0	0	0	0	0	0	0	0	0	1632	1392	0
1651665678398	1016.992	401.624	1016.504	-51.52	-258.93	-0.77	-369	-169.5	-585	0	0	0	0	0	0	0	0	0	0	0	0	0	0	0	0	0	0	1614	1374	0
1651665678408	670.024	58.56	1147.288	-22.75	-162.89	-10.57	-363	-189	-582	0	0	0	0	0	0	0	0	0	0	0	0	0	0	0	0	0	0	1691	1359	0
1651665678418	846.192	218.624	874.008	-6.72	-113.47	7.42	-363	-202.5	-573	0	0	0	0	0	0	0	0	0	0	0	0	0	0	0	0	0	0	1670	1359	0
1651665678428	656.36	164.944	806.176	-12.88	-62.02	-5.53	-363	-214.5	-564	0	0	0	0	0	0	0	0	0	0	0	0	0	0	0	0	0	0	1528	1219	0
1651665678438	554.368	120.536	650.016	-27.3	0.42	-5.46	-361.5	-220.5	-558	0	0	0	0	0	0	0	0	0	0	0	0	0	0	0	0	0	0	1546	1180	0
1651665678448	401.624	25.376	571.936	-28.49	98.07	11.13	-363	-220.5	-553.5	0	0	0	0	0	0	0	0	0	0	0	0	0	0	0	0	0	0	1582	1210	0
1651665678458	437.248	34.648	595.36	-27.44	213.78	20.23	-360	-219	-561	0	0	0	0	0	0	0	0	0	0	0	0	0	0	0	0	0	0	1578	1211	0
1651665678468	458.72	-47.336	635.376	-31.85	286.72	11.62	-352.5	-213	-573	0	0	0	0	0	0	0	0	0	0	0	0	0	0	0	0	0	0	1575	1195	0
1651665678478	512.4	-39.04	729.56	-32.62	322.28	17.08	-355.5	-205.5	-585	0	0	0	0	0	0	0	0	0	0	0	0	0	0	0	0	0	0	1560	1193	0
1651665678488	490.44	-63.44	784.216	-30.31	331.38	31.71	-360	-192	-607.5	0	0	0	0	0	0	0	0	0	0	0	0	0	0	0	0	0	0	1603	1232	0
1651665678498	633.912	9.76	923.784	-11.83	308.14	22.96	-357	-181.5	-630	0	0	0	0	0	0	0	0	0	0	0	0	0	0	0	0	0	0	1645	1266	0
1651665678508	612.44	34.648	999.424	24.85	231.49	-17.64	-351	-163.5	-642	0	0	0	0	0	0	0	0	0	0	0	0	0	0	0	0	0	0	1640	1631	0
1651665678518	538.752	87.84	925.736	90.3	167.72	-53.76	-346.5	-150	-655.5	0	0	0	0	0	0	0	0	0	0	0	0	0	0	0	0	0	0	2531	4674	0
1651665678528	1316.136	325.008	1037	96.11	211.75	-51.94	-346.5	-136.5	-663	0	0	0	0	0	0	0	0	0	0	0	0	0	0	0	0	0	0	2987	5134	0
1651665678538	1342.976	-419.192	1311.256	5.32	185.36	-343.35	-357	-120	-667.5	0	0	0	0	0	0	0	0	0	0	0	0	0	0	0	0	0	0	3020	5055	0
1651665678548	887.672	1310.28	1758.264	27.65	11.69	35.42	-370.5	-106.5	-667.5	0	0	0	0	0	0	0	0	0	0	0	0	0	0	0	0	0	0	2657	4042	0
1651665678558	762.744	291.336	605.608	49.42	-76.23	-59.99	-382.5	-90	-672	0	0	0	0	0	0	0	0	0	0	0	0	0	0	0	0	0	0	2402	3325	0
1651665678568	158.6	658.8	699.304	93.52	-24.5	-41.65	-388.5	-78	-687	0	0	0	0	0	0	0	0	0	0	0	0	0	0	0	0	0	0	2193	2723	0
1651665678578	-270.352	424.072	951.6	74.2	-57.61	120.68	-397.5	-78	-685.5	0	0	0	0	0	0	0	0	0	0	0	0	0	0	0	0	0	0	2006	2240	0
1651665678588	300.12	239.12	1124.84	74.41	-100.66	243.81	-403.5	-87	-681	0	0	0	0	0	0	0	0	0	0	0	0	0	0	0	0	0	0	1838	1898	0
1651665678598	410.896	29.28	1100.44	39.69	-84.84	256.83	-402	-97.5	-676.5	0	0	0	0	0	0	0	0	0	0	0	0	0	0	0	0	0	0	1726	1561	0
1651665678608	654.408	71.248	1020.896	61.11	-62.37	188.16	-391.5	-115.5	-667.5	0	0	0	0	0	0	0	0	0	0	0	0	0	0	0	0	0	0	1709	1519	0
1651665678618	1057.984	231.8	753.472	16.52	-32.27	125.51	-379.5	-132	-660	0	0	0	0	0	0	0	0	0	0	0	0	0	0	0	0	0	0	1769	1694	0
1651665678628	904.264	62.464	733.952	-90.02	72.59	43.05	-373.5	-142.5	-661.5	0	0	0	0	0	0	0	0	0	0	0	0	0	0	0	0	0	0	1709	1724	0
1651665678638	204.472	-87.352	795.44	-150.71	46.13	28.21	-367.5	-150	-670.5	0	0	0	0	0	0	0	0	0	0	0	0	0	0	0	0	0	0	1649	1810	0
1651665678648	134.688	-46.36	1039.44	-88.76	-60.62	-0.49	-360	-147	-676.5	0	0	0	0	0	0	0	0	0	0	0	0	0	0	0	0	0	0	1883	2701	0
1651665678658	-6.344	3.416	686.616	-69.02	-118.51	-32.62	-349.5	-144	-681	0	0	0	0	0	0	0	0	0	0	0	0	0	0	0	0	0	0	1547	1364	0
1651665678668	400.648	-119.56	806.664	-125.02	-225.47	-7.07	-346.5	-151.5	-681	0	0	0	0	0	0	0	0	0	0	0	0	0	0	0	0	0	0	1478	1046	0
1651665678678	671	5.856	989.664	-129.29	-273	-10.22	-340.5	-160.5	-676.5	0	0	0	0	0	0	0	0	0	0	0	0	0	0	0	0	0	0	1489	1061	0
1651665678688	917.44	40.016	987.712	-85.61	-233.17	30.66	-334.5	-172.5	-669	0	0	0	0	0	0	0	0	0	0	0	0	0	0	0	0	0	0	1532	1115	0
1651665678698	924.272	-30.256	1045.784	-40.81	-134.4	43.12	-327	-193.5	-658.5	0	0	0	0	0	0	0	0	0	0	0	0	0	0	0	0	0	0	1486	1133	0
1651665678708	921.832	-14.152	1131.184	-16.45	-85.96	37.8	-322.5	-207	-655.5	0	0	0	0	0	0	0	0	0	0	0	0	0	0	0	0	0	0	1465	1217	0
1651665678718	843.264	-36.6	1094.096	-8.68	-97.3	25.69	-313.5	-217.5	-655.5	0	0	0	0	0	0	0	0	0	0	0	0	0	0	0	0	0	0	1507	1230	0
1651665678728	831.552	16.592	1115.568	4.9	-112.49	2.8	-313.5	-226.5	-645	0	0	0	0	0	0	0	0	0	0	0	0	0	0	0	0	0	0	1496	1209	0
1651665678738	829.112	72.712	990.64	25.83	-70.35	5.88	-315	-229.5	-640.5	0	0	0	0	0	0	0	0	0	0	0	0	0	0	0	0	0	0	1496	1178	0
1651665678748	815.936	301.584	-41.968	71.89	110.6	69.16	-310.5	-241.5	-637.5	0	0	0	0	0	0	0	0	0	0	0	0	0	0	0	0	0	0	1500	1172	0
1651665678758	672.464	-175.68	1213.656	92.61	378.21	165.2	-312	-243	-639	0	0	0	0	0	0	0	0	0	0	0	0	0	0	0	0	0	0	1511	1172	0
1651665678768	987.712	-82.472	966.24	71.54	188.16	55.79	-312	-229.5	-654	0	0	0	0	0	0	0	0	0	0	0	0	0	0	0	0	0	0	1526	1169	0
1651665678778	906.216	-40.504	922.32	54.67	138.67	31.36	-309	-213	-669	0	0	0	0	0	0	0	0	0	0	0	0	0	0	0	0	0	0	1506	1180	0
1651665678788	753.96	-3.416	1119.96	47.11	136.36	17.5	-313.5	-204	-681	0	0	0	0	0	0	0	0	0	0	0	0	0	0	0	0	0	0	1489	1201	0
1651665678798	632.936	-34.648	1077.016	80.85	126.42	-21	-315	-196.5	-684	0	0	0	0	0	0	0	0	0	0	0	0	0	0	0	0	0	0	1469	1260	0
1651665678808	653.432	72.224	1153.632	87.29	29.75	-42.7	-313.5	-181.5	-691.5	0	0	0	0	0	0	0	0	0	0	0	0	0	0	0	0	0	0	1465	1430	0
1651665678818	797.88	156.16	1180.472	45.99	-122.08	-59.15	-322.5	-174	-693	0	0	0	0	0	0	0	0	0	0	0	0	0	0	0	0	0	0	1428	1787	0
1651665678829	944.768	162.504	1068.232	-19.81	-279.02	-44.17	-331.5	-174	-684	0	0	0	0	0	0	0	0	0	0	0	0	0	0	0	0	0	0	1509	2877	0
1651665678839	653.432	70.76	1296.616	-56.14	-340.9	38.85	-336	-178.5	-673.5	0	0	0	0	0	0	0	0	0	0	0	0	0	0	0	0	0	0	1629	7229	0
1651665678849	449.936	144.936	937.448	-62.51	-267.82	136.36	-333	-190.5	-655.5	0	0	0	0	0	0	0	0	0	0	0	0	0	0	0	0	0	0	2846	57488	0
1651665678859	167.872	84.912	1011.136	-31.5	-108.5	75.88	-327	-216	-630	0	0	0	0	0	0	0	0	0	0	0	0	0	0	0	0	0	0	6912	123281	0
1651665678869	662.216	207.4	922.32	-41.58	-86.03	116.34	-315	-226.5	-610.5	0	0	0	0	0	0	0	0	0	0	0	0	0	0	0	0	0	0	6488	131639	0
1651665678879	561.2	-2.928	854.976	-46.76	-105.42	176.4	-301.5	-232.5	-604.5	0	0	0	0	0	0	0	0	0	0	0	0	0	0	0	0	0	0	6175	131131	0
1651665678889	673.928	-286.456	655.384	-67.62	-86.59	160.65	-292.5	-244.5	-601.5	0	0	0	0	0	0	0	0	0	0	0	0	0	0	0	0	0	0	6709	135883	0
1651665678899	711.016	-285.968	586.088	-32.55	-59.01	115.64	-280.5	-258	-597	0	0	0	0	0	0	0	0	0	0	0	0	0	0	0	0	0	0	6047	135524	0
1651665678909	775.92	-331.84	437.248	7.42	-26.11	87.22	-262.5	-267	-589.5	0	0	0	0	0	0	0	0	0	0	0	0	0	0	0	0	0	0	8011	175347	0
1651665678919	872.056	-365.512	454.816	14.56	6.72	72.31	-256.5	-270	-588	0	0	0	0	0	0	0	0	0	0	0	0	0	0	0	0	0	0	7634	165219	0
1651665678929	740.784	-260.592	650.504	35.07	31.85	55.44	-255	-271.5	-586.5	0	0	0	0	0	0	0	0	0	0	0	0	0	0	0	0	0	0	7379	158912	0
1651665678939	578.28	-223.992	699.792	41.3	33.74	42.77	-253.5	-267	-588	0	0	0	0	0	0	0	0	0	0	0	0	0	0	0	0	0	0	7410	160586	0
1651665678949	498.736	-211.792	629.032	35.91	59.36	33.88	-249	-261	-591	0	0	0	0	0	0	0	0	0	0	0	0	0	0	0	0	0	0	7419	160121	0
1651665678959	510.936	-198.616	660.264	8.33	94.08	14.7	-244.5	-265.5	-589.5	0	0	0	0	0	0	0	0	0	0	0	0	0	0	0	0	0	0	7378	159082	0
1651665678969	45.872	-188.368	526.552	25.06	151.41	-29.82	-244.5	-265.5	-600	0	0	0	0	0	0	0	0	0	0	0	0	0	0	0	0	0	0	7205	154039	0
1651665678979	407.968	215.208	1238.544	-19.81	139.44	-14.07	-247.5	-253.5	-604.5	0	0	0	0	0	0	0	0	0	0	0	0	0	0	0	0	0	0	7032	149554	0
1651665678989	359.656	-77.592	853.512	-16.17	115.57	63	-247.5	-229.5	-621	0	0	0	0	0	0	0	0	0	0	0	0	0	0	0	0	0	0	6938	146856	0
1651665678999	630.984	-57.096	643.184	-5.18	104.44	105.49	-246	-226.5	-633	0	0	0	0	0	0	0	0	0	0	0	0	0	0	0	0	0	0	6728	141766	0
1651665679009	678.32	-113.704	676.368	-14.21	73.43	118.93	-235.5	-222	-637.5	0	0	0	0	0	0	0	0	0	0	0	0	0	0	0	0	0	0	6964	154082	0
1651665679019	357.704	-195.2	801.296	-98.77	111.72	102.2	-228	-219	-642	0	0	0	0	0	0	0	0	0	0	0	0	0	0	0	0	0	0	7733	174027	0
1651665679029	334.768	-315.248	1039.44	-89.32	112	112.07	-219	-219	-654	0	0	0	0	0	0	0	0	0	0	0	0	0	0	0	0	0	0	8268	185502	0
1651665679039	380.64	-167.384	905.24	-30.8	77.28	114.87	-205.5	-217.5	-661.5	0	0	0	0	0	0	0	0	0	0	0	0	0	0	0	0	0	0	8584	192287	0
1651665679049	388.448	-206.424	751.52	-22.12	64.54	76.23	-202.5	-211.5	-654	0	0	0	0	0	0	0	0	0	0	0	0	0	0	0	0	0	0	8732	195739	0
1651665679059	451.888	-142.008	746.64	-21.7	64.68	80.85	-199.5	-205.5	-657	0	0	0	0	0	0	0	0	0	0	0	0	0	0	0	0	0	0	8745	195852	0
1651665679069	584.624	-208.376	733.464	-21.07	56.91	70.35	-190.5	-202.5	-667.5	0	0	0	0	0	0	0	0	0	0	0	0	0	0	0	0	0	0	8561	191628	0
1651665679079	640.744	-168.848	792.024	-17.22	52.92	53.97	-186	-199.5	-666	0	0	0	0	0	0	0	0	0	0	0	0	0	0	0	0	0	0	8352	187742	0
1651665679089	711.992	-106.384	792.512	-15.75	59.99	24.01	-181.5	-196.5	-663	0	0	0	0	0	0	0	0	0	0	0	0	0	0	0	0	0	0	8039	179143	0
1651665679099	687.104	-159.576	748.104	-6.09	70.91	40.32	-178.5	-192	-669	0	0	0	0	0	0	0	0	0	0	0	0	0	0	0	0	0	0	7495	163606	0
1651665679109	532.408	-235.216	731.024	12.32	82.67	27.93	-177	-186	-675	0	0	0	0	0	0	0	0	0	0	0	0	0	0	0	0	0	0	6655	139916	0
1651665679119	404.552	-160.064	946.232	27.16	84.84	-17.5	-175.5	-187.5	-681	0	0	0	0	0	0	0	0	0	0	0	0	0	0	0	0	0	0	5773	116967	0
1651665679129	435.296	-142.008	1015.04	43.19	66.71	-33.25	-178.5	-184.5	-687	0	0	0	0	0	0	0	0	0	0	0	0	0	0	0	0	0	0	5596	113256	0
1651665679139	472.384	-135.176	1035.048	60.13	48.16	-66.57	-187.5	-175.5	-691.5	0	0	0	0	0	0	0	0	0	0	0	0	0	0	0	0	0	0	5440	106304	0
1651665679149	238.144	-96.624	929.152	67.97	29.12	-80.08	-189	-169.5	-685.5	0	0	0	0	0	0	0	0	0	0	0	0	0	0	0	0	0	0	4651	81410	0
1651665679159	35.624	-87.84	725.656	57.47	8.89	-85.82	-190.5	-169.5	-678	0	0	0	0	0	0	0	0	0	0	0	0	0	0	0	0	0	0	3368	48147	0
1651665679169	-1734.352	-219.6	2277.496	113.75	19.53	40.53	-201	-168	-682.5	0	0	0	0	0	0	0	0	0	0	0	0	0	0	0	0	0	0	2251	19198	0
1651665679179	-181.048	-227.896	866.2	129.5	-1.26	56.35	-214.5	-165	-685.5	0	0	0	0	0	0	0	0	0	0	0	0	0	0	0	0	0	0	1735	7152	0
1651665679189	148.84	58.072	313.296	73.71	79.45	17.78	-222	-163.5	-688.5	0	0	0	0	0	0	0	0	0	0	0	0	0	0	0	0	0	0	1644	4335	0
1651665679199	68.808	-386.984	503.128	36.33	107.59	27.72	-222	-159	-691.5	0	0	0	0	0	0	0	0	0	0	0	0	0	0	0	0	0	0	1600	3036	0
1651665679209	423.584	207.888	641.72	44.45	85.05	-9.52	-225	-154.5	-696	0	0	0	0	0	0	0	0	0	0	0	0	0	0	0	0	0	0	1589	2276	0
1651665679219	379.176	-312.32	776.408	48.86	40.25	-56.63	-235.5	-147	-700.5	0	0	0	0	0	0	0	0	0	0	0	0	0	0	0	0	0	0	1572	1876	0
1651665679229	337.208	-62.952	752.008	35.63	42.63	-58.38	-243	-138	-703.5	0	0	0	0	0	0	0	0	0	0	0	0	0	0	0	0	0	0	1563	1675	0
1651665679239	353.8	2.928	797.392	31.01	45.43	-54.18	-241.5	-132	-708	0	0	0	0	0	0	0	0	0	0	0	0	0	0	0	0	0	0	1570	1550	0
1651665679249	444.568	-12.688	827.16	34.51	51.45	-62.51	-247.5	-129	-711	0	0	0	0	0	0	0	0	0	0	0	0	0	0	0	0	0	0	1568	1449	0
1651665679259	466.528	8.296	988.2	32.13	69.79	-59.78	-255	-121.5	-714	0	0	0	0	0	0	0	0	0	0	0	0	0	0	0	0	0	0	1584	1384	0
1651665679269	557.784	61.976	1064.816	13.65	68.32	-44.1	-256.5	-112.5	-717	0	0	0	0	0	0	0	0	0	0	0	0	0	0	0	0	0	0	1600	1340	0
1651665679279	458.72	69.784	1018.456	-0.14	46.13	-34.37	-255	-111	-720	0	0	0	0	0	0	0	0	0	0	0	0	0	0	0	0	0	0	1612	1292	0
1651665679289	236.68	122.488	993.08	-4.41	22.26	-25.13	-253.5	-109.5	-723	0	0	0	0	0	0	0	0	0	0	0	0	0	0	0	0	0	0	1580	1260	0
1651665679299	81.496	88.816	927.688	-14.35	5.67	-17.85	-255	-108	-723	0	0	0	0	0	0	0	0	0	0	0	0	0	0	0	0	0	0	1582	1262	0
1651665679309	-56.12	36.112	821.792	-8.61	5.11	-16.87	-258	-109.5	-726	0	0	0	0	0	0	0	0	0	0	0	0	0	0	0	0	0	0	1566	1253	0
1651665679319	-50.752	46.848	745.664	1.68	21	-22.89	-262.5	-111	-732	0	0	0	0	0	0	0	0	0	0	0	0	0	0	0	0	0	0	1559	1290	0
1651665679329	75.152	-32.696	730.048	6.23	35.7	-27.58	-261	-111	-735	0	0	0	0	0	0	0	0	0	0	0	0	0	0	0	0	0	0	1551	1310	0
1651665679339	233.752	-99.064	761.28	15.47	49.07	-34.51	-261	-103.5	-742.5	0	0	0	0	0	0	0	0	0	0	0	0	0	0	0	0	0	0	1568	1344	0
1651665679349	343.064	-126.392	823.256	22.54	61.25	-38.08	-268.5	-96	-750	0	0	0	0	0	0	0	0	0	0	0	0	0	0	0	0	0	0	1557	1320	0
1651665679359	430.416	-156.16	895.968	26.74	74.13	-38.29	-271.5	-93	-747	0	0	0	0	0	0	0	0	0	0	0	0	0	0	0	0	0	0	1548	1278	0
1651665679369	410.896	-161.04	897.432	33.32	82.04	-38.29	-273	-90	-748.5	0	0	0	0	0	0	0	0	0	0	0	0	0	0	0	0	0	0	1534	1195	0
1651665679379	370.88	-86.376	940.376	36.68	92.54	-46.13	-277.5	-85.5	-753	0	0	0	0	0	0	0	0	0	0	0	0	0	0	0	0	0	0	1517	1121	0
1651665679389	199.592	21.96	1037.488	36.75	99.26	-51.59	-282	-73.5	-762	0	0	0	0	0	0	0	0	0	0	0	0	0	0	0	0	0	0	1505	1069	0
1651665679399	244.488	-66.368	1054.568	35.14	112.49	-33.18	-286.5	-63	-768	0	0	0	0	0	0	0	0	0	0	0	0	0	0	0	0	0	0	1497	1058	0
1651665679409	179.584	-30.256	1112.152	28.42	119.77	-27.02	-292.5	-54	-772.5	0	0	0	0	0	0	0	0	0	0	0	0	0	0	0	0	0	0	1493	1052	0
1651665679419	160.064	-34.648	1112.152	22.54	110.88	-27.02	-297	-43.5	-780	0	0	0	0	0	0	0	0	0	0	0	0	0	0	0	0	0	0	1469	1038	0
1651665679429	126.88	-33.184	1095.072	25.76	96.95	-27.37	-301.5	-39	-784.5	0	0	0	0	0	0	0	0	0	0	0	0	0	0	0	0	0	0	1500	1060	0
1651665679439	103.456	-22.448	1084.336	29.82	93.17	-25.69	-304.5	-37.5	-792	0	0	0	0	0	0	0	0	0	0	0	0	0	0	0	0	0	0	1511	1063	0
1651665679449	91.256	-0.976	1079.456	29.05	94.5	-21.07	-310.5	-27	-790.5	0	0	0	0	0	0	0	0	0	0	0	0	0	0	0	0	0	0	1517	1066	0
1651665679459	141.52	-52.704	1089.216	33.67	93.94	-19.67	-312	-18	-792	0	0	0	0	0	0	0	0	0	0	0	0	0	0	0	0	0	0	1514	1062	0
1651665679469	122	-34.16	1181.936	40.04	85.05	-20.93	-313.5	-15	-798	0	0	0	0	0	0	0	0	0	0	0	0	0	0	0	0	0	0	1528	1081	0
1651665679479	108.824	5.368	1213.656	41.72	59.71	-22.96	-321	-7.5	-802.5	0	0	0	0	0	0	0	0	0	0	0	0	0	0	0	0	0	0	1540	1067	0
1651665679489	168.36	127.368	1190.232	43.33	35.63	-35.35	-328.5	-1.5	-804	0	0	0	0	0	0	0	0	0	0	0	0	0	0	0	0	0	0	1532	1064	0
1651665679499	63.928	-20.496	1165.832	45.08	14.63	-43.54	-327	0	-810	0	0	0	0	0	0	0	0	0	0	0	0	0	0	0	0	0	0	1451	1020	0
1651665679509	-127.368	-22.936	1058.96	52.78	8.19	-37.24	-328.5	0	-808.5	0	0	0	0	0	0	0	0	0	0	0	0	0	0	0	0	0	0	1504	1049	0
1651665679519	-19.032	11.712	1016.016	57.4	25.34	-24.15	-336	0	-807	0	0	0	0	0	0	0	0	0	0	0	0	0	0	0	0	0	0	1523	1071	0
1651665679529	-21.96	7.32	1021.872	62.37	46.9	-13.86	-351	6	-814.5	0	0	0	0	0	0	0	0	0	0	0	0	0	0	0	0	0	0	1558	1095	0
1651665679539	-0.488	-11.224	1005.28	67.55	67.34	-7.21	-358.5	10.5	-813	0	0	0	0	0	0	0	0	0	0	0	0	0	0	0	0	0	0	1545	1085	0
1651665679549	32.208	47.336	980.88	72.87	81.76	2.52	-363	12	-810	0	0	0	0	0	0	0	0	0	0	0	0	0	0	0	0	0	0	1536	1067	0
1651665679559	20.496	54.168	1010.648	79.59	92.68	9.1	-366	18	-816	0	0	0	0	0	0	0	0	0	0	0	0	0	0	0	0	0	0	1533	1069	0
1651665679569	30.256	81.984	1025.776	81.69	102.06	12.04	-375	25.5	-825	0	0	0	0	0	0	0	0	0	0	0	0	0	0	0	0	0	0	1534	1054	0
1651665679579	34.16	136.64	1109.224	78.89	107.38	12.46	-384	33	-823.5	0	0	0	0	0	0	0	0	0	0	0	0	0	0	0	0	0	0	1519	1057	0
1651665679589	-21.472	174.704	1196.576	70.49	105.14	10.15	-388.5	40.5	-826.5	0	0	0	0	0	0	0	0	0	0	0	0	0	0	0	0	0	0	1524	1055	0
1651665679599	-94.184	207.888	1185.84	54.88	75.67	7.49	-394.5	57	-831	0	0	0	0	0	0	0	0	0	0	0	0	0	0	0	0	0	0	1521	1065	0
1651665679609	-159.088	221.552	1104.344	34.86	14	11.27	-400.5	67.5	-838.5	0	0	0	0	0	0	0	0	0	0	0	0	0	0	0	0	0	0	1516	1052	0
1651665679619	-73.688	223.992	1032.608	27.09	-58.73	20.86	-406.5	67.5	-841.5	0	0	0	0	0	0	0	0	0	0	0	0	0	0	0	0	0	0	1505	1048	0
1651665679629	-62.464	182.024	1034.56	3.5	-107.24	21.21	-411	57	-841.5	0	0	0	0	0	0	0	0	0	0	0	0	0	0	0	0	0	0	1498	1026	0
1651665679639	40.992	17.08	683.2	-34.16	-116.76	40.25	-411	45	-846	0	0	0	0	0	0	0	0	0	0	0	0	0	0	0	0	0	0	1496	1018	0
1651665679649	-66.856	204.472	980.88	34.02	-74.41	7.84	-409.5	36	-849	0	0	0	0	0	0	0	0	0	0	0	0	0	0	0	0	0	0	1477	1005	0
1651665679659	-60.024	177.632	985.76	30.66	-33.6	11.48	-418.5	28.5	-850.5	0	0	0	0	0	0	0	0	0	0	0	0	0	0	0	0	0	0	1469	999	0
1651665679670	31.72	216.672	1004.304	12.6	-3.92	24.71	-426	22.5	-853.5	0	0	0	0	0	0	0	0	0	0	0	0	0	0	0	0	0	0	1453	990	0
1651665679680	38.552	191.296	1066.28	11.27	5.67	28.07	-424.5	21	-861	0	0	0	0	0	0	0	0	0	0	0	0	0	0	0	0	0	0	1447	989	0
1651665679690	56.608	168.848	1107.76	8.68	-5.25	29.54	-426	18	-867	0	0	0	0	0	0	0	0	0	0	0	0	0	0	0	0	0	0	1454	983	0
1651665679700	26.84	203.984	1114.592	11.06	-14.63	27.23	-427.5	13.5	-867	0	0	0	0	0	0	0	0	0	0	0	0	0	0	0	0	0	0	1455	984	0
1651665679710	-62.464	268.888	1066.768	17.78	-8.89	19.18	-429	13.5	-867	0	0	0	0	0	0	0	0	0	0	0	0	0	0	0	0	0	0	1475	1011	0
1651665679720	-82.472	278.648	1006.256	23.03	10.78	12.25	-433.5	13.5	-870	0	0	0	0	0	0	0	0	0	0	0	0	0	0	0	0	0	0	1481	1015	0
1651665679730	-59.536	235.704	980.392	27.86	34.16	5.6	-438	15	-873	0	0	0	0	0	0	0	0	0	0	0	0	0	0	0	0	0	0	1474	999	0
1651665679740	-20.496	207.888	947.696	33.39	47.32	0.84	-439.5	22.5	-877.5	0	0	0	0	0	0	0	0	0	0	0	0	0	0	0	0	0	0	1463	1001	0
1651665679750	66.368	156.648	938.424	36.33	45.01	-4.13	-441	31.5	-880.5	0	0	0	0	0	0	0	0	0	0	0	0	0	0	0	0	0	0	1485	1020	0
1651665679760	105.896	106.384	979.904	33.04	40.95	-10.64	-450	39	-883.5	0	0	0	0	0	0	0	0	0	0	0	0	0	0	0	0	0	0	1516	1047	0
1651665679770	35.624	163.968	988.688	24.29	40.67	-8.96	-454.5	43.5	-888	0	0	0	0	0	0	0	0	0	0	0	0	0	0	0	0	0	0	1543	1063	0
1651665679780	-10.736	227.896	1019.432	16.38	45.29	-5.67	-457.5	48	-898.5	0	0	0	0	0	0	0	0	0	0	0	0	0	0	0	0	0	0	1549	1094	0
1651665679790	-41.48	256.2	1044.808	20.86	52.08	-10.85	-462	55.5	-906	0	0	0	0	0	0	0	0	0	0	0	0	0	0	0	0	0	0	1548	1090	0
1651665679800	-48.312	287.432	1076.528	25.27	50.75	-19.46	-462	61.5	-907.5	0	0	0	0	0	0	0	0	0	0	0	0	0	0	0	0	0	0	1553	1088	0
1651665679810	-72.712	272.792	1085.312	32.83	41.23	-27.37	-468	70.5	-912	0	0	0	0	0	0	0	0	0	0	0	0	0	0	0	0	0	0	1541	1080	0
1651665679820	-38.552	212.28	1082.872	42.7	30.73	-28.35	-477	81	-910.5	0	0	0	0	0	0	0	0	0	0	0	0	0	0	0	0	0	0	1540	1070	0
1651665679830	-58.56	224.48	1063.352	43.26	20.23	-26.88	-487.5	88.5	-912	0	0	0	0	0	0	0	0	0	0	0	0	0	0	0	0	0	0	1524	1065	0
1651665679840	-101.504	268.4	1016.016	55.16	4.62	-30.94	-493.5	90	-915	0	0	0	0	0	0	0	0	0	0	0	0	0	0	0	0	0	0	1522	1055	0
1651665679850	-116.632	315.248	975.024	64.47	-3.64	-44.66	-505.5	91.5	-912	0	0	0	0	0	0	0	0	0	0	0	0	0	0	0	0	0	0	1491	1029	0
1651665679860	-123.952	275.72	1038.952	49.7	4.13	-24.36	-514.5	100.5	-913.5	0	0	0	0	0	0	0	0	0	0	0	0	0	0	0	0	0	0	1501	1026	0
1651665679870	-21.96	312.808	1080.92	36.82	22.26	-13.93	-513	108	-915	0	0	0	0	0	0	0	0	0	0	0	0	0	0	0	0	0	0	1492	1028	0
1651665679880	13.176	240.584	1005.28	56.21	55.23	-23.1	-523.5	111	-913.5	0	0	0	0	0	0	0	0	0	0	0	0	0	0	0	0	0	0	1499	1024	0
1651665679890	-9.76	246.44	1023.824	48.09	57.12	-9.24	-537	120	-912	0	0	0	0	0	0	0	0	0	0	0	0	0	0	0	0	0	0	1517	1047	0
1651665679900	-13.664	217.16	966.728	13.79	41.16	-6.65	-544.5	130.5	-916.5	0	0	0	0	0	0	0	0	0	0	0	0	0	0	0	0	0	0	1525	1065	0
1651665679910	-138.104	297.68	1078.48	11.83	11.83	-0.63	-547.5	139.5	-921	0	0	0	0	0	0	0	0	0	0	0	0	0	0	0	0	0	0	1534	1070	0
1651665679920	-182.512	404.552	1137.528	8.68	-60.41	9.31	-546	138	-922.5	0	0	0	0	0	0	0	0	0	0	0	0	0	0	0	0	0	0	1542	1083	0
1651665679930	-157.136	389.912	913.536	2.31	-86.8	7	-547.5	132	-925.5	0	0	0	0	0	0	0	0	0	0	0	0	0	0	0	0	0	0	1540	1081	0
1651665679940	-201.056	441.64	1006.744	-5.74	-73.08	5.18	-553.5	127.5	-928.5	0	0	0	0	0	0	0	0	0	0	0	0	0	0	0	0	0	0	1549	1076	0
1651665679950	-154.696	393.816	954.528	-9.66	-69.44	7.14	-555	117	-933	0	0	0	0	0	0	0	0	0	0	0	0	0	0	0	0	0	0	1548	1088	0
1651665679960	-65.392	348.432	941.352	-15.61	-66.92	5.74	-552	106.5	-930	0	0	0	0	0	0	0	0	0	0	0	0	0	0	0	0	0	0	1563	1087	0
1651665679970	-49.776	342.088	889.136	-21.21	-73.99	2.87	-549	96	-927	0	0	0	0	0	0	0	0	0	0	0	0	0	0	0	0	0	0	1501	1060	0
1651665679980	-58.072	326.96	933.056	-30.59	-80.71	9.73	-546	87	-927	0	0	0	0	0	0	0	0	0	0	0	0	0	0	0	0	0	0	1517	1038	0
1651665679990	10.736	300.608	932.568	-29.47	-83.72	17.01	-543	81	-933	0	0	0	0	0	0	0	0	0	0	0	0	0	0	0	0	0	0	1517	1049	0
1651665680000	-6.832	302.072	891.088	-24.01	-94.64	16.87	-538.5	70.5	-936	0	0	0	0	0	0	0	0	0	0	0	0	0	0	0	0	0	0	1524	1042	0
1651665680010	0	324.52	916.952	-40.95	-101.43	18.27	-540	60	-937.5	0	0	0	0	0	0	0	0	0	0	0	0	0	0	0	0	0	0	1511	1049	0
1651665680020	-9.76	288.896	976.488	-54.18	-107.1	25.83	-537	48	-942	0	0	0	0	0	0	0	0	0	0	0	0	0	0	0	0	0	0	1504	1031	0
1651665680030	-162.016	202.52	684.664	-137.41	-58.66	43.75	-523.5	25.5	-949.5	0	0	0	0	0	0	0	0	0	0	0	0	0	0	0	0	0	0	1511	1030	0
1651665680040	20.984	243.024	901.824	-155.82	-36.68	44.17	-510	19.5	-958.5	0	0	0	0	0	0	0	0	0	0	0	0	0	0	0	0	0	0	1506	1030	0
1651665680050	55.632	203.984	814.96	-175.49	-26.04	41.65	-493.5	21	-972	0	0	0	0	0	0	0	0	0	0	0	0	0	0	0	0	0	0	1505	1028	0
1651665680060	89.304	94.672	806.664	-210.56	-24.22	51.52	-480	10.5	-985.5	0	0	0	0	0	0	0	0	0	0	0	0	0	0	0	0	0	0	1512	1035	0
1651665680070	56.12	-20.984	859.368	-241.78	-21.28	66.99	-454.5	1.5	-997.5	0	0	0	0	0	0	0	0	0	0	0	0	0	0	0	0	0	0	1542	1049	0
1651665680080	19.52	-80.032	642.208	-273.56	48.37	70	-424.5	-1.5	-1015.5	0	0	0	0	0	0	0	0	0	0	0	0	0	0	0	0	0	0	1547	1061	0
1651665680090	-7.32	-114.192	575.84	-316.4	129.29	84.14	-394.5	0	-1035	0	0	0	0	0	0	0	0	0	0	0	0	0	0	0	0	0	0	1570	1060	0
1651665680100	-1236.104	1240.984	-380.64	43.26	422.94	46.97	-360	12	-1060.5	0	0	0	0	0	0	0	0	0	0	0	0	0	0	0	0	0	0	1562	1084	0
1651665680110	909.632	201.544	-1603.568	62.51	120.4	18.83	-346.5	33	-1081.5	0	0	0	0	0	0	0	0	0	0	0	0	0	0	0	0	0	0	1570	1072	0
1651665680120	214.232	173.728	888.16	6.16	7.07	-16.24	-351	49.5	-1087.5	0	0	0	0	0	0	0	0	0	0	0	0	0	0	0	0	0	0	1568	1072	0
1651665680130	-5.368	51.24	1114.592	-3.71	-0.56	14.98	-351	46.5	-1081.5	0	0	0	0	0	0	0	0	0	0	0	0	0	0	0	0	0	0	1555	1077	0
1651665680140	-69.784	10.736	1019.92	0.56	-0.49	10.08	-351	49.5	-1080	0	0	0	0	0	0	0	0	0	0	0	0	0	0	0	0	0	0	1545	1061	0
1651665680150	-70.272	-34.16	1051.152	-0.7	-2.03	4.9	-349.5	52.5	-1078.5	0	0	0	0	0	0	0	0	0	0	0	0	0	0	0	0	0	0	1526	1046	0
1651665680160	-48.8	-29.768	999.912	0.84	-1.75	-3.22	-346.5	45	-1081.5	0	0	0	0	0	0	0	0	0	0	0	0	0	0	0	0	0	0	1518	1037	0
1651665680170	-22.448	-44.896	1012.112	0.28	-1.26	-3.64	-349.5	43.5	-1084.5	0	0	0	0	0	0	0	0	0	0	0	0	0	0	0	0	0	0	1506	1036	0
1651665680180	-8.784	-32.696	1000.4	0.07	-0.98	0.7	-352.5	48	-1080	0	0	0	0	0	0	0	0	0	0	0	0	0	0	0	0	0	0	1494	1032	0
1651665680190	-7.32	-37.088	1008.696	0.28	-0.84	-0.63	-352.5	48	-1077	0	0	0	0	0	0	0	0	0	0	0	0	0	0	0	0	0	0	1502	1033	0
1651665680200	-3.416	-46.36	1016.504	0.07	-0.84	-2.59	-357	43.5	-1086	0	0	0	0	0	0	0	0	0	0	0	0	0	0	0	0	0	0	1511	1034	0
1651665680210	-2.928	-14.152	1009.184	0.14	-0.77	-2.03	-357	45	-1084.5	0	0	0	0	0	0	0	0	0	0	0	0	0	0	0	0	0	0	1511	1027	0
1651665680220	-14.152	-5.368	1017.48	-0.07	-0.98	-0.07	-352.5	46.5	-1077	0	0	0	0	0	0	0	0	0	0	0	0	0	0	0	0	0	0	1514	1035	0
1651665680230	-14.152	-6.832	1015.04	0.14	-0.91	0.07	-355.5	46.5	-1080	0	0	0	0	0	0	0	0	0	0	0	0	0	0	0	0	0	0	1519	1045	0
1651665680240	-14.64	0	1012.112	-0.14	-1.05	0	-355.5	45	-1080	0	0	0	0	0	0	0	0	0	0	0	0	0	0	0	0	0	0	1529	1045	0
1651665680250	-16.592	-7.32	1011.136	0.28	-0.91	-0.07	-357	43.5	-1081.5	0	0	0	0	0	0	0	0	0	0	0	0	0	0	0	0	0	0	1522	1046	0
1651665680260	-15.616	-3.416	1018.944	0.07	-1.19	-0.07	-355.5	51	-1075.5	0	0	0	0	0	0	0	0	0	0	0	0	0	0	0	0	0	0	1514	1042	0
1651665680270	-10.248	1.464	1019.432	0	-0.98	0.07	-351	51	-1080	0	0	0	0	0	0	0	0	0	0	0	0	0	0	0	0	0	0	1513	1029	0
1651665680280	-9.76	4.88	1017.48	0.07	-1.05	0.14	-349.5	52.5	-1087.5	0	0	0	0	0	0	0	0	0	0	0	0	0	0	0	0	0	0	1514	1035	0
1651665680290	-13.664	0.488	1015.04	0.07	-1.19	0.07	-351	54	-1081.5	0	0	0	0	0	0	0	0	0	0	0	0	0	0	0	0	0	0	1526	1034	0
1651665680300	-10.248	-1.464	1013.088	-0.07	-0.98	0.21	-348	45	-1080	0	0	0	0	0	0	0	0	0	0	0	0	0	0	0	0	0	0	1533	1038	0
1651665680310	-22.936	-11.224	1012.6	0.07	-1.05	0.14	-349.5	42	-1081.5	0	0	0	0	0	0	0	0	0	0	0	0	0	0	0	0	0	0	1555	1046	0
1651665680320	-11.712	-2.928	1016.992	0.14	-1.12	0.35	-352.5	45	-1081.5	0	0	0	0	0	0	0	0	0	0	0	0	0	0	0	0	0	0	1600	1049	0
1651665680330	-63.44	15.616	1013.576	-0.07	-1.05	2.24	-357	46.5	-1083	0	0	0	0	0	0	0	0	0	0	0	0	0	0	0	0	0	0	1707	1064	0
1651665680340	-50.752	16.592	1014.064	-0.14	-0.98	5.32	-355.5	45	-1077	0	0	0	0	0	0	0	0	0	0	0	0	0	0	0	0	0	0	1962	1153	0
1651665680350	19.032	-16.104	1011.624	-0.28	-0.84	4.55	-351	45	-1074	0	0	0	0	0	0	0	0	0	0	0	0	0	0	0	0	0	0	2255	1378	0
1651665680360	44.896	-31.232	1018.944	0.07	-0.91	1.33	-352.5	43.5	-1077	0	0	0	0	0	0	0	0	0	0	0	0	0	0	0	0	0	0	2520	1693	0
1651665680370	-14.152	-1.464	1004.304	0.14	-0.91	0.14	-358.5	46.5	-1081.5	0	0	0	0	0	0	0	0	0	0	0	0	0	0	0	0	0	0	2769	2033	0
1651665680380	-12.2	2.928	1013.576	0.28	-0.98	0.21	-352.5	52.5	-1081.5	0	0	0	0	0	0	0	0	0	0	0	0	0	0	0	0	0	0	3071	2318	0
1651665680390	-14.64	-2.44	1009.184	0.07	-0.84	0.14	-349.5	49.5	-1086	0	0	0	0	0	0	0	0	0	0	0	0	0	0	0	0	0	0	3288	2478	0
1651665680400	-15.616	-2.44	1016.016	0.14	-0.91	0.07	-352.5	51	-1087.5	0	0	0	0	0	0	0	0	0	0	0	0	0	0	0	0	0	0	3127	2481	0
1651665680410	-12.688	-5.856	1016.016	0.21	-0.91	0	-352.5	49.5	-1087.5	0	0	0	0	0	0	0	0	0	0	0	0	0	0	0	0	0	0	2853	2290	0
1651665680420	-17.08	-6.344	1010.648	0	-0.91	0.07	-348	51	-1086	0	0	0	0	0	0	0	0	0	0	0	0	0	0	0	0	0	0	2857	2197	0
1651665680430	-14.64	-3.904	1010.16	0.07	-0.91	0	-349.5	54	-1083	0	0	0	0	0	0	0	0	0	0	0	0	0	0	0	0	0	0	3202	2460	0
1651665680440	-13.176	-9.272	1004.304	0.07	-0.98	0	-351	46.5	-1078.5	0	0	0	0	0	0	0	0	0	0	0	0	0	0	0	0	0	0	3171	2658	0
1651665680450	-9.76	4.88	1013.088	0.07	-0.98	0.07	-349.5	42	-1078.5	0	0	0	0	0	0	0	0	0	0	0	0	0	0	0	0	0	0	3040	2518	0
1651665680460	-17.08	2.928	1012.112	0.07	-0.91	0.07	-351	49.5	-1080	0	0	0	0	0	0	0	0	0	0	0	0	0	0	0	0	0	0	2878	2301	0
1651665680470	-15.616	0.976	1012.6	0.07	-0.91	0.14	-351	52.5	-1078.5	0	0	0	0	0	0	0	0	0	0	0	0	0	0	0	0	0	0	2732	2253	0
1651665680480	-10.736	1.952	1016.016	-0.07	-1.12	0.14	-351	46.5	-1074	0	0	0	0	0	0	0	0	0	0	0	0	0	0	0	0	0	0	2614	2195	0
1651665680490	-12.2	-3.904	1011.624	0.28	-0.98	0.21	-351	51	-1077	0	0	0	0	0	0	0	0	0	0	0	0	0	0	0	0	0	0	2515	2123	0
1651665680500	-20.496	-4.392	1011.136	-0.14	-1.05	0.07	-352.5	49.5	-1078.5	0	0	0	0	0	0	0	0	0	0	0	0	0	0	0	0	0	0	2412	2041	0
1651665680511	-14.152	-12.688	1015.04	0	-0.91	0.07	-352.5	43.5	-1080	0	0	0	0	0	0	0	0	0	0	0	0	0	0	0	0	0	0	2336	1986	0
1651665680521	-14.152	-0.488	1018.456	0	-0.98	0.07	-351	48	-1081.5	0	0	0	0	0	0	0	0	0	0	0	0	0	0	0	0	0	0	2271	1933	0
1651665680531	-13.176	-0.488	1013.576	0.07	-0.98	0.14	-351	51	-1078.5	0	0	0	0	0	0	0	0	0	0	0	0	0	0	0	0	0	0	2239	1899	0
1651665680541	-13.176	9.76	1008.696	0.14	-0.98	0	-348	48	-1078.5	0	0	0	0	0	0	0	0	0	0	0	0	0	0	0	0	0	0	2217	1882	0
1651665680551	-11.712	-4.392	1016.504	0.14	-0.98	0.14	-346.5	43.5	-1075.5	0	0	0	0	0	0	0	0	0	0	0	0	0	0	0	0	0	0	2201	1873	0
1651665680561	-10.248	7.32	1010.16	0.07	-1.05	0.07	-352.5	46.5	-1077	0	0	0	0	0	0	0	0	0	0	0	0	0	0	0	0	0	0	2224	1906	0
1651665680571	-17.568	-1.464	1010.16	0.07	-1.12	0	-352.5	49.5	-1077	0	0	0	0	0	0	0	0	0	0	0	0	0	0	0	0	0	0	2268	1972	0
1651665680581	-12.688	-2.44	1012.6	0.07	-1.05	0.07	-351	46.5	-1075.5	0	0	0	0	0	0	0	0	0	0	0	0	0	0	0	0	0	0	2357	2056	0
1651665680591	-18.056	-6.344	1011.136	0.14	-1.05	0.14	-349.5	43.5	-1083	0	0	0	0	0	0	0	0	0	0	0	0	0	0	0	0	0	0	2438	2159	0
1651665680601	-15.616	-13.664	1009.672	0.21	-0.98	0.07	-349.5	45	-1081.5	0	0	0	0	0	0	0	0	0	0	0	0	0	0	0	0	0	0	2523	2264	0
1651665680611	-17.568	-10.248	1016.504	0.07	-1.12	0.07	-349.5	51	-1080	0	0	0	0	0	0	0	0	0	0	0	0	0	0	0	0	0	0	2616	2360	0
1651665680621	-18.056	-1.952	1016.504	0.42	-0.98	0	-348	51	-1084.5	0	0	0	0	0	0	0	0	0	0	0	0	0	0	0	0	0	0	2706	2470	0
1651665680631	-8.784	0.976	1018.456	0.14	-0.98	0.14	-354	48	-1086	0	0	0	0	0	0	0	0	0	0	0	0	0	0	0	0	0	0	2827	2626	0
1651665680641	-16.104	4.88	1017.968	0.14	-1.05	0.07	-361.5	43.5	-1083	0	0	0	0	0	0	0	0	0	0	0	0	0	0	0	0	0	0	2975	2799	0
1651665680651	-11.712	-2.44	1012.112	0.21	-0.98	0.14	-360	42	-1080	0	0	0	0	0	0	0	0	0	0	0	0	0	0	0	0	0	0	3139	3023	0
1651665680661	-17.568	-4.392	1012.6	0.14	-1.05	0.14	-349.5	45	-1078.5	0	0	0	0	0	0	0	0	0	0	0	0	0	0	0	0	0	0	3347	3294	0
1651665680671	-18.056	-4.88	1014.552	0	-0.98	0.14	-349.5	45	-1074	0	0	0	0	0	0	0	0	0	0	0	0	0	0	0	0	0	0	3606	3636	0
1651665680681	-15.616	0	1014.552	0.14	-1.12	0.14	-349.5	48	-1072.5	0	0	0	0	0	0	0	0	0	0	0	0	0	0	0	0	0	0	3936	4081	0
1651665680691	-17.568	-7.808	1018.456	0.14	-1.12	0.07	-348	48	-1074	0	0	0	0	0	0	0	0	0	0	0	0	0	0	0	0	0	0	4390	4672	0
1651665680701	-14.64	-7.808	1011.624	0.14	-0.98	0.07	-348	45	-1080	0	0	0	0	0	0	0	0	0	0	0	0	0	0	0	0	0	0	4976	5440	0
1651665680711	-17.08	-9.272	1013.576	0.21	-1.05	0.07	-348	48	-1084.5	0	0	0	0	0	0	0	0	0	0	0	0	0	0	0	0	0	0	5647	6257	0
1651665680721	-11.712	-0.976	1016.016	0.07	-0.98	0.35	-351	52.5	-1083	0	0	0	0	0	0	0	0	0	0	0	0	0	0	0	0	0	0	6270	6998	0
1651665680731	10.736	-23.424	1017.48	-0.14	-1.05	3.29	-354	49.5	-1083	0	0	0	0	0	0	0	0	0	0	0	0	0	0	0	0	0	0	6822	7685	0
1651665680741	1.464	-11.224	1006.744	-0.21	-0.98	2.38	-351	48	-1081.5	0	0	0	0	0	0	0	0	0	0	0	0	0	0	0	0	0	0	7382	8393	0
1651665680751	-32.696	21.96	1018.456	0	-1.05	-0.14	-351	51	-1086	0	0	0	0	0	0	0	0	0	0	0	0	0	0	0	0	0	0	8034	9226	0
1651665680761	-26.84	4.392	1003.328	0.07	-0.91	-2.17	-355.5	48	-1086	0	0	0	0	0	0	0	0	0	0	0	0	0	0	0	0	0	0	8794	10145	0
1651665680771	-32.696	10.248	1018.944	0.14	-1.05	-3.57	-354	46.5	-1084.5	0	0	0	0	0	0	0	0	0	0	0	0	0	0	0	0	0	0	9535	10962	0
1651665680781	-18.056	-14.64	1009.672	0.21	-0.98	-3.85	-352.5	49.5	-1084.5	0	0	0	0	0	0	0	0	0	0	0	0	0	0	0	0	0	0	10150	11568	0
1651665680791	-24.888	30.256	1016.504	0.21	-1.05	-5.18	-351	46.5	-1081.5	0	0	0	0	0	0	0	0	0	0	0	0	0	0	0	0	0	0	10838	12175	0
1651665680801	-6.832	-108.336	1017.48	0.35	-2.03	-6.58	-349.5	46.5	-1081.5	0	0	0	0	0	0	0	0	0	0	0	0	0	0	0	0	0	0	11693	12880	0
1651665680811	12.688	251.808	1030.656	0.49	-1.19	-1.19	-354	51	-1090.5	0	0	0	0	0	0	0	0	0	0	0	0	0	0	0	0	0	0	12681	13668	0
1651665680821	-29.28	-25.864	960.384	0.49	-0.56	-1.96	-352.5	46.5	-1086	0	0	0	0	0	0	0	0	0	0	0	0	0	0	0	0	0	0	13519	14256	0
1651665680831	19.52	-14.64	1017.968	0.21	-0.91	0.84	-352.5	40.5	-1083	0	0	0	0	0	0	0	0	0	0	0	0	0	0	0	0	0	0	13927	14349	0
1651665680841	-49.288	-3.904	1008.208	0.35	-1.12	-1.68	-349.5	42	-1081.5	0	0	0	0	0	0	0	0	0	0	0	0	0	0	0	0	0	0	14073	14160	0
1651665680851	-3.904	36.6	1016.992	-0.21	-0.91	2.94	-349.5	49.5	-1086	0	0	0	0	0	0	0	0	0	0	0	0	0	0	0	0	0	0	14346	14041	0
1651665680861	-35.136	-6.832	1001.376	-0.21	0.07	7.77	-355.5	49.5	-1089	0	0	0	0	0	0	0	0	0	0	0	0	0	0	0	0	0	0	14981	14303	0
1651665680871	-68.808	10.736	1014.552	0	-1.12	-0.77	-358.5	43.5	-1084.5	0	0	0	0	0	0	0	0	0	0	0	0	0	0	0	0	0	0	16232	15154	0
1651665680881	-19.52	-7.808	1021.384	0.21	-1.33	-0.56	-357	36	-1084.5	0	0	0	0	0	0	0	0	0	0	0	0	0	0	0	0	0	0	17943	16561	0
1651665680891	-10.248	-1.952	1013.576	-0.14	-0.91	0.14	-349.5	34.5	-1083	0	0	0	0	0	0	0	0	0	0	0	0	0	0	0	0	0	0	20415	18784	0
1651665680901	-11.712	-0.488	1013.576	0.14	-1.05	0.07	-352.5	40.5	-1083	0	0	0	0	0	0	0	0	0	0	0	0	0	0	0	0	0	0	23913	21983	0
1651665680911	-15.128	4.392	1008.696	0.07	-0.91	0.14	-357	43.5	-1084.5	0	0	0	0	0	0	0	0	0	0	0	0	0	0	0	0	0	0	28647	26120	0
1651665680921	-9.272	-6.344	1014.064	0.14	-1.05	0.14	-352.5	43.5	-1083	0	0	0	0	0	0	0	0	0	0	0	0	0	0	0	0	0	0	34356	30749	0
1651665680931	-11.712	-7.808	1015.528	0.14	-1.05	0	-346.5	43.5	-1084.5	0	0	0	0	0	0	0	0	0	0	0	0	0	0	0	0	0	0	39777	34833	0
1651665680941	-15.128	-13.176	1015.04	0.14	-0.98	0.14	-352.5	46.5	-1087.5	0	0	0	0	0	0	0	0	0	0	0	0	0	0	0	0	0	0	43534	37311	0
1651665680951	-15.128	-13.664	1016.504	0.07	-0.98	0.21	-354	40.5	-1074	0	0	0	0	0	0	0	0	0	0	0	0	0	0	0	0	0	0	45972	38781	0
1651665680961	-14.64	-7.32	1019.432	0	-1.05	0.07	-351	34.5	-1078.5	0	0	0	0	0	0	0	0	0	0	0	0	0	0	0	0	0	0	47907	39867	0
1651665680971	-17.568	0.488	1015.528	0	-0.98	0.14	-354	37.5	-1083	0	0	0	0	0	0	0	0	0	0	0	0	0	0	0	0	0	0	49913	41307	0
1651665680981	-15.128	-11.224	1018.944	0.21	-1.12	0	-349.5	40.5	-1078.5	0	0	0	0	0	0	0	0	0	0	0	0	0	0	0	0	0	0	53132	44151	0
1651665680991	-17.568	-7.32	1012.112	-0.07	-0.98	0.14	-346.5	46.5	-1080	0	0	0	0	0	0	0	0	0	0	0	0	0	0	0	0	0	0	57837	48528	0
1651665681001	-12.688	-1.952	1018.944	0.21	-1.05	0.07	-351	43.5	-1081.5	0	0	0	0	0	0	0	0	0	0	0	0	0	0	0	0	0	0	64356	54729	0
1651665681011	-17.08	-6.832	1015.528	0	-1.05	0.07	-351	37.5	-1084.5	0	0	0	0	0	0	0	0	0	0	0	0	0	0	0	0	0	0	73177	63582	0
1651665681021	-12.688	-8.296	1014.064	0.21	-1.05	0.14	-349.5	37.5	-1086	0	0	0	0	0	0	0	0	0	0	0	0	0	0	0	0	0	0	85385	75912	0
1651665681031	-21.96	-5.856	1013.576	0	-0.98	0.21	-349.5	37.5	-1083	0	0	0	0	0	0	0	0	0	0	0	0	0	0	0	0	0	0	99811	91213	0
1651665681041	-63.928	14.152	1014.552	-0.07	-1.05	2.73	-351	42	-1077	0	0	0	0	0	0	0	0	0	0	0	0	0	0	0	0	0	0	111231	105182	0
1651665681051	55.632	-22.448	1018.944	0.07	-2.17	2.38	-352.5	45	-1080	0	0	0	0	0	0	0	0	0	0	0	0	0	0	0	0	0	0	114490	113345	0
1651665681061	-16.592	-3.416	1023.336	-0.07	-1.26	-0.42	-349.5	40.5	-1086	0	0	0	0	0	0	0	0	0	0	0	0	0	0	0	0	0	0	113191	117712	0
1651665681071	-13.664	-3.416	1013.576	0.07	-0.84	0.14	-351	36	-1078.5	0	0	0	0	0	0	0	0	0	0	0	0	0	0	0	0	0	0	122102	131853	0
1651665681081	-11.224	5.856	1015.528	0.14	-1.05	0.07	-349.5	36	-1075.5	0	0	0	0	0	0	0	0	0	0	0	0	0	0	0	0	0	0	132326	147663	0
1651665681091	-18.056	-6.344	1015.528	0.14	-0.98	0.14	-349.5	37.5	-1081.5	0	0	0	0	0	0	0	0	0	0	0	0	0	0	0	0	0	0	142947	163609	0
1651665681101	-12.2	-5.856	1013.088	0.14	-1.05	0.14	-354	34.5	-1078.5	0	0	0	0	0	0	0	0	0	0	0	0	0	0	0	0	0	0	150829	176076	0
1651665681111	-13.664	-13.176	1016.504	0.07	-1.05	0.14	-354	36	-1077	0	0	0	0	0	0	0	0	0	0	0	0	0	0	0	0	0	0	155001	183170	0
1651665681121	-15.128	-8.296	1016.504	0.28	-0.98	0	-352.5	34.5	-1081.5	0	0	0	0	0	0	0	0	0	0	0	0	0	0	0	0	0	0	156312	186001	0
1651665681131	-16.592	-1.952	1012.112	-0.07	-0.98	0.07	-349.5	37.5	-1080	0	0	0	0	0	0	0	0	0	0	0	0	0	0	0	0	0	0	155054	184439	0
1651665681141	-16.104	0	1016.992	0.14	-1.05	0.07	-345	43.5	-1074	0	0	0	0	0	0	0	0	0	0	0	0	0	0	0	0	0	0	153184	182357	0
1651665681151	-15.616	0	1013.088	0.14	-0.91	0.07	-345	42	-1077	0	0	0	0	0	0	0	0	0	0	0	0	0	0	0	0	0	0	152132	181286	0
1651665681161	-13.664	-0.976	1012.112	0.07	-1.12	0.07	-352.5	37.5	-1081.5	0	0	0	0	0	0	0	0	0	0	0	0	0	0	0	0	0	0	151599	180536	0
1651665681171	-6.832	4.88	1018.944	-0.07	-0.98	0.07	-354	39	-1084.5	0	0	0	0	0	0	0	0	0	0	0	0	0	0	0	0	0	0	151732	180317	0
1651665681181	-11.224	-0.976	1011.136	0.14	-0.91	0.07	-351	39	-1081.5	0	0	0	0	0	0	0	0	0	0	0	0	0	0	0	0	0	0	152230	180543	0
1651665681191	-10.248	-2.928	1017.48	0.07	-0.91	0.21	-352.5	42	-1080	0	0	0	0	0	0	0	0	0	0	0	0	0	0	0	0	0	0	153022	181255	0
1651665681201	-8.296	-3.904	1015.04	0.07	-0.98	0.14	-352.5	46.5	-1081.5	0	0	0	0	0	0	0	0	0	0	0	0	0	0	0	0	0	0	154258	182503	0
1651665681211	-13.176	-6.344	1016.992	0.14	-0.98	0.21	-351	43.5	-1084.5	0	0	0	0	0	0	0	0	0	0	0	0	0	0	0	0	0	0	155860	184451	0
1651665681221	-15.616	-7.808	1014.064	0.07	-0.91	0.14	-352.5	39	-1086	0	0	0	0	0	0	0	0	0	0	0	0	0	0	0	0	0	0	157506	186549	0
1651665681231	-15.128	-11.224	1016.016	0.14	-0.98	0	-355.5	42	-1080	0	0	0	0	0	0	0	0	0	0	0	0	0	0	0	0	0	0	158822	188152	0
1651665681241	-11.712	-7.808	1011.624	0	-1.05	0	-354	37.5	-1081.5	0	0	0	0	0	0	0	0	0	0	0	0	0	0	0	0	0	0	159744	189387	0
1651665681251	-13.176	-6.344	1012.112	0.21	-1.05	0.14	-349.5	37.5	-1086	0	0	0	0	0	0	0	0	0	0	0	0	0	0	0	0	0	0	160317	190162	0
1651665681261	-16.104	1.464	1012.6	0	-0.84	0.14	-349.5	39	-1080	0	0	0	0	0	0	0	0	0	0	0	0	0	0	0	0	0	0	160569	190572	0
1651665681271	-18.544	-7.32	1016.016	0.07	-1.05	0.14	-351	39	-1081.5	0	0	0	0	0	0	0	0	0	0	0	0	0	0	0	0	0	0	160586	190720	0
1651665681281	-16.592	-6.344	1015.04	0.07	-0.91	0	-352.5	40.5	-1084.5	0	0	0	0	0	0	0	0	0	0	0	0	0	0	0	0	0	0	160202	190582	0
1651665681291	-12.688	-0.488	1011.136	0.14	-0.84	0.07	-352.5	39	-1080	0	0	0	0	0	0	0	0	0	0	0	0	0	0	0	0	0	0	159868	190382	0
1651665681301	-13.664	-0.976	1008.696	0.07	-1.05	0.07	-348	42	-1077	0	0	0	0	0	0	0	0	0	0	0	0	0	0	0	0	0	0	159239	189584	0
1651665681311	-7.32	5.856	1009.184	0.14	-0.98	0.07	-349.5	40.5	-1086	0	0	0	0	0	0	0	0	0	0	0	0	0	0	0	0	0	0	158662	188664	0
1651665681321	-13.664	-5.368	1020.896	0.07	-0.98	0	-351	37.5	-1084.5	0	0	0	0	0	0	0	0	0	0	0	0	0	0	0	0	0	0	158404	188096	0
1651665681331	-8.296	-3.416	1012.6	0.14	-0.98	0.14	-357	42	-1081.5	0	0	0	0	0	0	0	0	0	0	0	0	0	0	0	0	0	0	158546	188081	0
1651665681341	-18.056	-7.808	1013.088	0.07	-0.98	0.07	-355.5	45	-1081.5	0	0	0	0	0	0	0	0	0	0	0	0	0	0	0	0	0	0	159106	188586	0
1651665681352	-13.176	-7.32	1008.696	0.14	-1.05	0	-354	40.5	-1086	0	0	0	0	0	0	0	0	0	0	0	0	0	0	0	0	0	0	159954	189508	0
1651665681362	-16.104	-6.832	1013.576	0.21	-1.12	0	-354	43.5	-1084.5	0	0	0	0	0	0	0	0	0	0	0	0	0	0	0	0	0	0	160989	190580	0
1651665681372	-14.152	-9.76	1016.504	0	-0.98	0.07	-354	40.5	-1074	0	0	0	0	0	0	0	0	0	0	0	0	0	0	0	0	0	0	161650	191169	0
1651665681382	-11.224	-7.808	1013.576	0.14	-0.98	0.07	-352.5	40.5	-1081.5	0	0	0	0	0	0	0	0	0	0	0	0	0	0	0	0	0	0	161868	191237	0
1651665681392	-17.568	-5.856	1013.576	0	-1.05	0.07	-351	46.5	-1081.5	0	0	0	0	0	0	0	0	0	0	0	0	0	0	0	0	0	0	161602	190763	0
1651665681402	-12.2	0.488	1019.92	0.07	-0.98	0	-352.5	46.5	-1081.5	0	0	0	0	0	0	0	0	0	0	0	0	0	0	0	0	0	0	161194	190228	0
1651665681412	-12.2	-1.464	1013.088	0.07	-0.98	0	-352.5	40.5	-1084.5	0	0	0	0	0	0	0	0	0	0	0	0	0	0	0	0	0	0	160951	189948	0
1651665681422	-3.416	3.904	1010.648	0.07	-0.98	0.21	-351	39	-1087.5	0	0	0	0	0	0	0	0	0	0	0	0	0	0	0	0	0	0	160760	189735	0
1651665681432	-15.616	-4.392	1013.088	0.07	-0.91	0.14	-352.5	37.5	-1086	0	0	0	0	0	0	0	0	0	0	0	0	0	0	0	0	0	0	160563	189473	0
1651665681442	-13.664	-2.44	1008.696	0.07	-0.91	0.07	-352.5	43.5	-1086	0	0	0	0	0	0	0	0	0	0	0	0	0	0	0	0	0	0	160365	189204	0
1651665681452	-14.64	-6.832	1020.896	0.14	-1.05	0.07	-354	40.5	-1087.5	0	0	0	0	0	0	0	0	0	0	0	0	0	0	0	0	0	0	160271	189127	0
1651665681462	-16.592	-5.368	1014.552	0.07	-0.98	0.07	-348	36	-1083	0	0	0	0	0	0	0	0	0	0	0	0	0	0	0	0	0	0	160423	189388	0
1651665681472	-20.496	-1.952	1014.064	0	-1.05	0.07	-349.5	39	-1080	0	0	0	0	0	0	0	0	0	0	0	0	0	0	0	0	0	0	160875	189997	0
1651665681482	-8.296	-0.976	1010.648	0.14	-0.91	0.07	-354	40.5	-1078.5	0	0	0	0	0	0	0	0	0	0	0	0	0	0	0	0	0	0	161491	190744	0
1651665681492	-14.152	-4.392	1016.016	0.14	-1.05	0.07	-355.5	43.5	-1078.5	0	0	0	0	0	0	0	0	0	0	0	0	0	0	0	0	0	0	161992	191275	0
1651665681502	-13.176	-3.416	1011.624	0.14	-1.05	0.07	-348	43.5	-1080	0	0	0	0	0	0	0	0	0	0	0	0	0	0	0	0	0	0	162132	191391	0
1651665681512	-10.248	-0.488	1010.648	0.14	-0.98	0.07	-352.5	46.5	-1081.5	0	0	0	0	0	0	0	0	0	0	0	0	0	0	0	0	0	0	162118	191359	0
1651665681522	-11.224	-4.392	1010.648	0.07	-1.05	0.07	-358.5	46.5	-1083	0	0	0	0	0	0	0	0	0	0	0	0	0	0	0	0	0	0	162006	191204	0
1651665681532	-16.592	-1.952	1010.648	0.14	-0.91	0.07	-357	43.5	-1083	0	0	0	0	0	0	0	0	0	0	0	0	0	0	0	0	0	0	161897	191083	0
1651665681542	-15.128	0	1012.112	0	-0.91	0.07	-357	36	-1080	0	0	0	0	0	0	0	0	0	0	0	0	0	0	0	0	0	0	161800	190987	0
1651665681552	-13.176	-5.368	1011.624	0.14	-1.05	0	-354	33	-1081.5	0	0	0	0	0	0	0	0	0	0	0	0	0	0	0	0	0	0	161684	190858	0
1651665681562	-14.64	-2.928	1009.672	0.07	-0.98	0.14	-348	34.5	-1081.5	0	0	0	0	0	0	0	0	0	0	0	0	0	0	0	0	0	0	161496	190672	0
1651665681572	-13.176	-1.464	1012.6	0.21	-0.91	0	-351	39	-1083	0	0	0	0	0	0	0	0	0	0	0	0	0	0	0	0	0	0	161266	190474	0
1651665681582	-10.736	-3.904	1013.088	0.14	-1.05	0.07	-357	39	-1081.5	0	0	0	0	0	0	0	0	0	0	0	0	0	0	0	0	0	0	161035	190272	0
1651665681592	-18.056	-1.952	1013.088	0.07	-0.98	0	-355.5	37.5	-1075.5	0	0	0	0	0	0	0	0	0	0	0	0	0	0	0	0	0	0	160858	190127	0
1651665681602	-16.592	4.88	1012.112	0.07	-0.98	0.07	-349.5	39	-1078.5	0	0	0	0	0	0	0	0	0	0	0	0	0	0	0	0	0	0	160864	190281	0
1651665681612	-13.664	-2.928	1014.064	0.07	-0.98	0.07	-354	36	-1081.5	0	0	0	0	0	0	0	0	0	0	0	0	0	0	0	0	0	0	161024	190589	0
1651665681622	-11.712	-0.976	1012.112	0.07	-1.05	0.14	-357	31.5	-1081.5	0	0	0	0	0	0	0	0	0	0	0	0	0	0	0	0	0	0	161220	190897	0
1651665681632	-19.032	-7.808	1016.992	0.07	-1.05	0.14	-352.5	37.5	-1084.5	0	0	0	0	0	0	0	0	0	0	0	0	0	0	0	0	0	0	161112	190738	0
1651665681642	-20.008	-8.296	1012.6	0.14	-0.98	0.07	-354	42	-1084.5	0	0	0	0	0	0	0	0	0	0	0	0	0	0	0	0	0	0	160944	190540	0
1651665681652	-10.736	-9.76	1012.112	0.07	-0.98	0.07	-354	39	-1081.5	0	0	0	0	0	0	0	0	0	0	0	0	0	0	0	0	0	0	160681	190210	0
1651665681662	-15.128	-1.464	1009.184	0.14	-1.05	0.07	-352.5	43.5	-1080	0	0	0	0	0	0	0	0	0	0	0	0	0	0	0	0	0	0	160367	189867	0
1651665681672	-8.296	-0.976	1013.576	0	-1.12	0.07	-352.5	46.5	-1078.5	0	0	0	0	0	0	0	0	0	0	0	0	0	0	0	0	0	0	160167	189676	0
1651665681682	-13.664	-3.416	1009.672	0.14	-0.98	0.07	-352.5	43.5	-1080	0	0	0	0	0	0	0	0	0	0	0	0	0	0	0	0	0	0	160080	189617	0
1651665681692	-15.128	-0.976	1010.648	0	-0.91	-0.07	-352.5	42	-1078.5	0	0	0	0	0	0	0	0	0	0	0	0	0	0	0	0	0	0	160122	189693	0
1651665681702	-16.104	-0.976	1012.112	0.07	-1.05	0.07	-352.5	39	-1083	0	0	0	0	0	0	0	0	0	0	0	0	0	0	0	0	0	0	160170	189797	0
1651665681712	-14.152	0.488	1011.136	0.07	-0.91	0.07	-349.5	43.5	-1083	0	0	0	0	0	0	0	0	0	0	0	0	0	0	0	0	0	0	160219	189898	0
1651665681722	-9.76	-8.296	1015.04	0.07	-0.84	0	-351	45	-1075.5	0	0	0	0	0	0	0	0	0	0	0	0	0	0	0	0	0	0	160291	190000	0
1651665681732	-16.592	-7.808	1010.648	0.07	-0.98	0.07	-351	37.5	-1080	0	0	0	0	0	0	0	0	0	0	0	0	0	0	0	0	0	0	160375	190107	0
1651665681742	-15.616	-0.976	1009.672	0.07	-0.98	0.07	-351	39	-1081.5	0	0	0	0	0	0	0	0	0	0	0	0	0	0	0	0	0	0	160493	190329	0
1651665681752	-15.616	-6.832	1014.552	0.14	-1.12	0.07	-352.5	40.5	-1078.5	0	0	0	0	0	0	0	0	0	0	0	0	0	0	0	0	0	0	160805	190804	0
1651665681762	-16.592	-2.928	1013.088	0.07	-0.98	0.07	-351	39	-1078.5	0	0	0	0	0	0	0	0	0	0	0	0	0	0	0	0	0	0	161129	191214	0
1651665681772	-9.76	-0.976	1011.624	0.07	-0.98	0.07	-354	37.5	-1080	0	0	0	0	0	0	0	0	0	0	0	0	0	0	0	0	0	0	161262	191378	0
1651665681782	-13.176	1.952	1013.088	0.07	-0.98	0.07	-352.5	36	-1083	0	0	0	0	0	0	0	0	0	0	0	0	0	0	0	0	0	0	161264	191377	0
1651665681792	-5.856	-1.952	1013.088	0.07	-0.91	0.14	-352.5	37.5	-1084.5	0	0	0	0	0	0	0	0	0	0	0	0	0	0	0	0	0	0	161222	191334	0
1651665681802	-14.64	-0.976	1013.576	0.07	-0.91	0.07	-358.5	45	-1086	0	0	0	0	0	0	0	0	0	0	0	0	0	0	0	0	0	0	161184	191266	0
1651665681812	-18.056	-7.808	1014.552	0.14	-0.84	0.07	-357	51	-1081.5	0	0	0	0	0	0	0	0	0	0	0	0	0	0	0	0	0	0	161141	191209	0
1651665681822	-12.688	-9.76	1018.456	0.14	-1.05	0.07	-354	43.5	-1077	0	0	0	0	0	0	0	0	0	0	0	0	0	0	0	0	0	0	161079	191085	0
1651665681832	-17.568	-1.952	1011.136	0.07	-0.98	0.07	-352.5	39	-1080	0	0	0	0	0	0	0	0	0	0	0	0	0	0	0	0	0	0	160929	190851	0
1651665681842	-15.616	0	1010.648	0.07	-0.91	0.07	-352.5	40.5	-1080	0	0	0	0	0	0	0	0	0	0	0	0	0	0	0	0	0	0	160836	190757	0
1651665681852	-10.248	-2.928	1012.6	0.21	-0.98	0.14	-351	40.5	-1078.5	0	0	0	0	0	0	0	0	0	0	0	0	0	0	0	0	0	0	160824	190728	0
1651665681862	-16.104	-2.44	1010.648	0.14	-0.98	0.07	-349.5	40.5	-1078.5	0	0	0	0	0	0	0	0	0	0	0	0	0	0	0	0	0	0	160760	190682	0
1651665681872	-15.616	-8.296	1014.552	0.14	-0.98	0.07	-354	36	-1083	0	0	0	0	0	0	0	0	0	0	0	0	0	0	0	0	0	0	160707	190634	0
1651665681882	-13.176	1.464	1014.064	0.07	-1.05	0.07	-348	37.5	-1080	0	0	0	0	0	0	0	0	0	0	0	0	0	0	0	0	0	0	160629	190540	0
1651665681892	-12.2	-6.832	1016.016	0.07	-0.91	0.07	-348	42	-1075.5	0	0	0	0	0	0	0	0	0	0	0	0	0	0	0	0	0	0	160563	190484	0
1651665681902	-14.64	-4.392	1014.552	0	-0.91	0.14	-351	42	-1078.5	0	0	0	0	0	0	0	0	0	0	0	0	0	0	0	0	0	0	160481	190413	0
1651665681912	-11.224	-7.32	1013.576	0.14	-0.98	0.07	-348	43.5	-1075.5	0	0	0	0	0	0	0	0	0	0	0	0	0	0	0	0	0	0	160312	190200	0
1651665681922	-13.664	-6.344	1012.6	0.07	-1.05	0	-352.5	43.5	-1080	0	0	0	0	0	0	0	0	0	0	0	0	0	0	0	0	0	0	160043	189944	0
1651665681932	-10.736	-4.392	1009.672	0.21	-1.05	0.07	-355.5	43.5	-1083	0	0	0	0	0	0	0	0	0	0	0	0	0	0	0	0	0	0	159760	189620	0
1651665681942	-9.272	0.488	1009.672	0	-1.05	0.14	-355.5	43.5	-1081.5	0	0	0	0	0	0	0	0	0	0	0	0	0	0	0	0	0	0	159413	189278	0
1651665681952	-16.592	-1.464	1010.16	0.14	-0.98	0.14	-357	42	-1081.5	0	0	0	0	0	0	0	0	0	0	0	0	0	0	0	0	0	0	159015	188823	0
1651665681962	-11.224	-7.808	1013.088	0.14	-0.98	0.07	-352.5	39	-1086	0	0	0	0	0	0	0	0	0	0	0	0	0	0	0	0	0	0	158477	188425	0
1651665681972	-5.368	-18.544	1030.656	0	-0.84	0.21	-352.5	39	-1087.5	0	0	0	0	0	0	0	0	0	0	0	0	0	0	0	0	0	0	158212	188104	0
1651665681982	2.44	-0.488	1025.288	0.21	-1.05	0	-354	39	-1084.5	0	0	0	0	0	0	0	0	0	0	0	0	0	0	0	0	0	0	158077	187969	0
1651665681992	-25.376	-3.416	1016.992	0	-0.98	0	-349.5	40.5	-1081.5	0	0	0	0	0	0	0	0	0	0	0	0	0	0	0	0	0	0	158120	188031	0
1651665682002	-8.784	-10.248	1023.336	0.14	-1.19	0.07	-345	46.5	-1081.5	0	0	0	0	0	0	0	0	0	0	0	0	0	0	0	0	0	0	158242	188240	0
1651665682012	-8.784	-2.44	1007.72	0.07	-0.98	0.07	-343.5	43.5	-1080	0	0	0	0	0	0	0	0	0	0	0	0	0	0	0	0	0	0	158433	188472	0
1651665682022	-15.128	-0.488	1011.136	0.07	-0.91	0.14	-346.5	39	-1080	0	0	0	0	0	0	0	0	0	0	0	0	0	0	0	0	0	0	158636	188669	0
1651665682032	-13.176	-2.928	1015.04	0.14	-1.05	0.07	-351	40.5	-1089	0	0	0	0	0	0	0	0	0	0	0	0	0	0	0	0	0	0	158778	188810	0
1651665682042	-11.224	0	1010.16	0.07	-1.05	0.07	-355.5	39	-1086	0	0	0	0	0	0	0	0	0	0	0	0	0	0	0	0	0	0	158843	188879	0
1651665682052	-12.688	0.488	1013.088	0.14	-0.98	0.07	-357	40.5	-1084.5	0	0	0	0	0	0	0	0	0	0	0	0	0	0	0	0	0	0	158867	188912	0
1651665682062	-10.248	-8.784	1014.064	0.07	-1.05	0.07	-351	40.5	-1083	0	0	0	0	0	0	0	0	0	0	0	0	0	0	0	0	0	0	158858	188862	0
1651665682072	-13.664	-4.88	1013.088	0.14	-0.84	0.07	-346.5	42	-1083	0	0	0	0	0	0	0	0	0	0	0	0	0	0	0	0	0	0	158781	188781	0
1651665682082	-18.544	-10.736	1011.624	0.07	-0.98	0.07	-355.5	42	-1086	0	0	0	0	0	0	0	0	0	0	0	0	0	0	0	0	0	0	158686	188647	0
1651665682092	-17.08	-1.952	1013.088	0.07	-0.98	0.14	-352.5	34.5	-1084.5	0	0	0	0	0	0	0	0	0	0	0	0	0	0	0	0	0	0	158585	188511	0
1651665682102	-15.616	-4.392	1014.064	0.07	-0.98	0.07	-352.5	33	-1087.5	0	0	0	0	0	0	0	0	0	0	0	0	0	0	0	0	0	0	158489	188394	0
1651665682112	-17.568	5.856	1008.208	0	-0.07	0.14	-357	34.5	-1084.5	0	0	0	0	0	0	0	0	0	0	0	0	0	0	0	0	0	0	158464	188348	0
1651665682122	-24.4	-7.32	1011.624	0	-1.19	0.14	-355.5	37.5	-1080	0	0	0	0	0	0	0	0	0	0	0	0	0	0	0	0	0	0	158469	188364	0
1651665682132	-13.664	-8.784	1002.84	0.07	-0.91	0.21	-352.5	39	-1081.5	0	0	0	0	0	0	0	0	0	0	0	0	0	0	0	0	0	0	158518	188420	0
1651665682142	-18.056	-2.44	1015.528	0.07	-1.12	0.07	-348	42	-1078.5	0	0	0	0	0	0	0	0	0	0	0	0	0	0	0	0	0	0	158547	188459	0
1651665682152	-15.128	-7.32	1018.456	0.14	-1.05	0.07	-349.5	45	-1077	0	0	0	0	0	0	0	0	0	0	0	0	0	0	0	0	0	0	158575	188455	0
1651665682162	-11.224	-5.368	1012.6	0.07	-1.05	0.14	-351	40.5	-1077	0	0	0	0	0	0	0	0	0	0	0	0	0	0	0	0	0	0	158584	188469	0
1651665682172	-11.712	-3.904	1013.088	0.14	-0.98	0	-352.5	39	-1077	0	0	0	0	0	0	0	0	0	0	0	0	0	0	0	0	0	0	158594	188451	0
1651665682182	-16.592	-5.856	1016.016	0	-1.05	0	-351	45	-1075.5	0	0	0	0	0	0	0	0	0	0	0	0	0	0	0	0	0	0	158594	188400	0
1651665682193	-6.832	-3.904	1014.064	0.07	-0.84	0	-349.5	42	-1078.5	0	0	0	0	0	0	0	0	0	0	0	0	0	0	0	0	0	0	158533	188310	0
1651665682203	-10.736	-0.488	1012.112	0.07	-0.91	0.07	-349.5	36	-1084.5	0	0	0	0	0	0	0	0	0	0	0	0	0	0	0	0	0	0	158451	188176	0
1651665682213	-18.056	0.488	1019.92	0.14	-1.19	0.07	-351	39	-1083	0	0	0	0	0	0	0	0	0	0	0	0	0	0	0	0	0	0	158382	188087	0
1651665682223	-13.176	0	1010.16	0.14	-1.12	0	-354	46.5	-1083	0	0	0	0	0	0	0	0	0	0	0	0	0	0	0	0	0	0	158350	188018	0
1651665682233	-11.224	5.856	1013.088	0.07	-0.91	0.14	-352.5	45	-1084.5	0	0	0	0	0	0	0	0	0	0	0	0	0	0	0	0	0	0	158297	187958	0
1651665682243	-11.712	-5.368	1014.552	0.07	-1.05	0.14	-351	45	-1089	0	0	0	0	0	0	0	0	0	0	0	0	0	0	0	0	0	0	158259	187883	0
1651665682253	-13.176	-5.856	1012.6	0.07	-0.98	0.14	-349.5	45	-1087.5	0	0	0	0	0	0	0	0	0	0	0	0	0	0	0	0	0	0	158256	187871	0
1651665682263	-12.2	-1.464	1013.576	0.07	-0.98	0.07	-349.5	37.5	-1080	0	0	0	0	0	0	0	0	0	0	0	0	0	0	0	0	0	0	158319	187966	0
1651665682273	-35.136	-7.32	1018.944	0.07	-1.26	0	-351	37.5	-1084.5	0	0	0	0	0	0	0	0	0	0	0	0	0	0	0	0	0	0	158451	188115	0
1651665682283	-44.408	-59.536	1049.2	-0.42	0.21	0.28	-352.5	42	-1084.5	0	0	0	0	0	0	0	0	0	0	0	0	0	0	0	0	0	0	158585	188277	0
1651665682293	-27.328	27.328	970.632	0.56	-1.54	0	-352.5	43.5	-1089	0	0	0	0	0	0	0	0	0	0	0	0	0	0	0	0	0	0	158696	188371	0
1651665682303	26.84	-9.272	1029.192	0.28	-1.47	0.21	-351	43.5	-1084.5	0	0	0	0	0	0	0	0	0	0	0	0	0	0	0	0	0	0	158716	188349	0
1651665682313	-14.152	-7.808	1033.584	0	-0.98	0.07	-357	42	-1083	0	0	0	0	0	0	0	0	0	0	0	0	0	0	0	0	0	0	158713	188311	0
1651665682323	-37.088	-20.984	1053.104	-0.07	-1.75	0	-357	39	-1084.5	0	0	0	0	0	0	0	0	0	0	0	0	0	0	0	0	0	0	158653	188200	0
1651665682333	-23.912	-9.76	1001.864	0.07	-1.47	0.07	-352.5	37.5	-1078.5	0	0	0	0	0	0	0	0	0	0	0	0	0	0	0	0	0	0	158572	188079	0
1651665682343	-37.088	-13.176	1006.744	0.07	-0.49	0.14	-351	36	-1081.5	0	0	0	0	0	0	0	0	0	0	0	0	0	0	0	0	0	0	158517	187993	0
1651665682353	0.976	-3.904	1032.608	0.14	-1.26	0.14	-352.5	39	-1083	0	0	0	0	0	0	0	0	0	0	0	0	0	0	0	0	0	0	158480	187936	0
1651665682363	-14.152	0	1025.288	0	-1.05	0.14	-355.5	40.5	-1078.5	0	0	0	0	0	0	0	0	0	0	0	0	0	0	0	0	0	0	158476	187898	0
1651665682373	-17.568	-18.056	990.152	0	-0.91	0.07	-357	36	-1078.5	0	0	0	0	0	0	0	0	0	0	0	0	0	0	0	0	0	0	158450	187892	0
1651665682383	-24.4	-3.904	1012.112	0.14	-0.77	0.07	-354	36	-1075.5	0	0	0	0	0	0	0	0	0	0	0	0	0	0	0	0	0	0	158421	187872	0
1651665682393	4.88	-6.344	1012.112	0.07	-0.98	0.14	-354	42	-1077	0	0	0	0	0	0	0	0	0	0	0	0	0	0	0	0	0	0	158439	187887	0
1651665682403	-16.592	2.44	1007.232	0.07	-1.05	0.07	-354	45	-1083	0	0	0	0	0	0	0	0	0	0	0	0	0	0	0	0	0	0	158496	187948	0
1651665682413	-10.736	-1.952	1009.672	0.07	-0.84	0.14	-352.5	40.5	-1084.5	0	0	0	0	0	0	0	0	0	0	0	0	0	0	0	0	0	0	158543	188006	0
1651665682423	-17.08	1.464	1006.256	0.14	-0.98	0	-354	39	-1086	0	0	0	0	0	0	0	0	0	0	0	0	0	0	0	0	0	0	158537	187974	0
1651665682433	-11.712	-4.88	1009.184	0.07	-1.19	0.07	-352.5	39	-1078.5	0	0	0	0	0	0	0	0	0	0	0	0	0	0	0	0	0	0	158465	187881	0
1651665682443	-13.176	-8.296	1012.6	0.14	-0.98	0.07	-349.5	43.5	-1081.5	0	0	0	0	0	0	0	0	0	0	0	0	0	0	0	0	0	0	158390	187744	0
1651665682453	-17.08	-4.88	1011.136	0.07	-0.98	0.07	-346.5	43.5	-1080	0	0	0	0	0	0	0	0	0	0	0	0	0	0	0	0	0	0	158294	187638	0
1651665682463	-9.76	-5.368	1015.04	0.07	-1.05	0.07	-352.5	40.5	-1077	0	0	0	0	0	0	0	0	0	0	0	0	0	0	0	0	0	0	158244	187554	0
1651665682473	-16.592	0.488	1011.136	0.07	-0.91	0	-357	43.5	-1084.5	0	0	0	0	0	0	0	0	0	0	0	0	0	0	0	0	0	0	158189	187492	0
1651665682483	-15.128	-4.88	1004.304	0.14	-1.05	0	-351	43.5	-1086	0	0	0	0	0	0	0	0	0	0	0	0	0	0	0	0	0	0	158124	187413	0
1651665682493	-16.104	-3.904	1012.6	0	-1.19	0.07	-351	37.5	-1078.5	0	0	0	0	0	0	0	0	0	0	0	0	0	0	0	0	0	0	158032	187306	0
1651665682503	-16.104	-8.296	1013.088	0	-0.98	0.07	-352.5	34.5	-1077	0	0	0	0	0	0	0	0	0	0	0	0	0	0	0	0	0	0	157900	187156	0
1651665682513	-9.76	-0.488	1008.208	0.07	-0.98	0.07	-351	40.5	-1078.5	0	0	0	0	0	0	0	0	0	0	0	0	0	0	0	0	0	0	157797	187068	0
1651665682523	-17.568	-2.44	1012.112	0.07	-0.98	0.14	-352.5	42	-1077	0	0	0	0	0	0	0	0	0	0	0	0	0	0	0	0	0	0	157789	187045	0
1651665682533	-18.056	-7.32	1015.528	0.07	-1.05	0.14	-352.5	42	-1080	0	0	0	0	0	0	0	0	0	0	0	0	0	0	0	0	0	0	157729	187004	0
1651665682543	-15.128	-4.392	1016.016	0.07	-1.05	0.14	-352.5	46.5	-1083	0	0	0	0	0	0	0	0	0	0	0	0	0	0	0	0	0	0	157709	186944	0
1651665682553	-14.64	-13.176	1016.016	0.14	-1.12	0.07	-354	48	-1086	0	0	0	0	0	0	0	0	0	0	0	0	0	0	0	0	0	0	157695	186927	0
1651665682563	-19.52	2.44	1012.112	0	-1.12	0	-351	40.5	-1081.5	0	0	0	0	0	0	0	0	0	0	0	0	0	0	0	0	0	0	157657	186888	0
1651665682573	-8.784	-0.488	1007.232	0	-0.91	0.07	-346.5	33	-1080	0	0	0	0	0	0	0	0	0	0	0	0	0	0	0	0	0	0	157517	186773	0
1651665682583	-20.496	-3.416	1016.992	0	-0.98	0.14	-348	34.5	-1080	0	0	0	0	0	0	0	0	0	0	0	0	0	0	0	0	0	0	157380	186662	0
1651665682593	-18.544	-2.928	1015.04	0.14	-0.91	0.14	-351	39	-1078.5	0	0	0	0	0	0	0	0	0	0	0	0	0	0	0	0	0	0	157295	186634	0
1651665682603	-14.64	1.464	1009.672	0.07	-1.05	0.07	-352.5	43.5	-1078.5	0	0	0	0	0	0	0	0	0	0	0	0	0	0	0	0	0	0	157266	186608	0
1651665682612	-11.224	-1.952	1011.624	0.14	-0.98	0.07	-352.5	45	-1077	0	0	0	0	0	0	0	0	0	0	0	0	0	0	0	0	0	0	157247	186614	0
1651665682622	-12.688	-3.416	1014.552	0.07	-0.84	0	-354	43.5	-1078.5	0	0	0	0	0	0	0	0	0	0	0	0	0	0	0	0	0	0	157197	186608	0
1651665682632	-8.784	2.928	1009.672	0.07	-1.05	0.07	-351	42	-1078.5	0	0	0	0	0	0	0	0	0	0	0	0	0	0	0	0	0	0	157179	186601	0
1651665682642	-18.056	5.368	1014.064	0.07	-1.05	0.07	-352.5	42	-1081.5	0	0	0	0	0	0	0	0	0	0	0	0	0	0	0	0	0	0	157127	186555	0
1651665682652	-19.032	-8.784	1014.552	0.07	-0.91	0.07	-352.5	43.5	-1081.5	0	0	0	0	0	0	0	0	0	0	0	0	0	0	0	0	0	0	157074	186487	0
1651665682662	-13.664	-5.368	1016.992	0.14	-0.91	0.07	-348	40.5	-1084.5	0	0	0	0	0	0	0	0	0	0	0	0	0	0	0	0	0	0	157038	186472	0
1651665682672	-18.056	-2.928	1014.064	0.07	-1.12	0.14	-351	40.5	-1081.5	0	0	0	0	0	0	0	0	0	0	0	0	0	0	0	0	0	0	156972	186439	0
1651665682682	-14.64	-3.904	1007.72	0.14	-1.12	0	-355.5	46.5	-1080	0	0	0	0	0	0	0	0	0	0	0	0	0	0	0	0	0	0	156939	186400	0
1651665682692	-11.712	-0.976	1012.112	0.21	-0.98	0.21	-354	42	-1084.5	0	0	0	0	0	0	0	0	0	0	0	0	0	0	0	0	0	0	156913	186382	0
1651665682702	-11.712	-2.44	1014.064	0.14	-0.98	0.07	-352.5	42	-1084.5	0	0	0	0	0	0	0	0	0	0	0	0	0	0	0	0	0	0	156884	186375	0
1651665682712	-14.152	-4.392	1013.088	0.14	-1.12	0.07	-348	40.5	-1083	0	0	0	0	0	0	0	0	0	0	0	0	0	0	0	0	0	0	156892	186418	0
1651665682722	-14.64	-2.928	1010.648	0.21	-1.05	0.07	-354	42	-1087.5	0	0	0	0	0	0	0	0	0	0	0	0	0	0	0	0	0	0	156976	186488	0
1651665682732	-11.224	1.464	1008.208	0.14	-0.84	0.14	-355.5	40.5	-1086	0	0	0	0	0	0	0	0	0	0	0	0	0	0	0	0	0	0	157017	186666	0
1651665682742	-11.712	-5.368	1016.504	0.07	-1.05	0.07	-354	36	-1083	0	0	0	0	0	0	0	0	0	0	0	0	0	0	0	0	0	0	157122	186772	0
1651665682752	-6.832	-7.32	1008.696	0.07	-1.05	0.07	-349.5	40.5	-1077	0	0	0	0	0	0	0	0	0	0	0	0	0	0	0	0	0	0	157186	186853	0
1651665682762	-21.472	-3.904	1014.552	-0.07	-0.98	0.14	-346.5	43.5	-1080	0	0	0	0	0	0	0	0	0	0	0	0	0	0	0	0	0	0	157226	186905	0
1651665682772	-17.08	-5.856	1014.552	0.07	-0.98	0.07	-349.5	45	-1080	0	0	0	0	0	0	0	0	0	0	0	0	0	0	0	0	0	0	157258	186947	0
1651665682782	-11.224	-2.928	1017.48	0.21	-1.05	0.14	-352.5	46.5	-1078.5	0	0	0	0	0	0	0	0	0	0	0	0	0	0	0	0	0	0	157268	186984	0
1651665682792	-11.712	-3.904	1010.648	0	-0.91	0.14	-348	46.5	-1078.5	0	0	0	0	0	0	0	0	0	0	0	0	0	0	0	0	0	0	157288	186991	0
1651665682802	-7.808	-6.832	1016.504	0.07	-1.12	0.14	-346.5	42	-1075.5	0	0	0	0	0	0	0	0	0	0	0	0	0	0	0	0	0	0	157295	187017	0
1651665682812	-16.592	-3.904	1011.624	0.14	-1.05	0.07	-351	39	-1075.5	0	0	0	0	0	0	0	0	0	0	0	0	0	0	0	0	0	0	157349	187119	0
1651665682822	-16.592	-0.976	1014.552	0	-0.98	0.21	-352.5	40.5	-1080	0	0	0	0	0	0	0	0	0	0	0	0	0	0	0	0	0	0	157374	187144	0
1651665682832	-18.544	-3.904	1012.112	0.07	-0.98	0.14	-349.5	46.5	-1083	0	0	0	0	0	0	0	0	0	0	0	0	0	0	0	0	0	0	157375	187160	0
1651665682842	-20.984	-3.416	1015.528	0	-0.98	0.14	-351	49.5	-1080	0	0	0	0	0	0	0	0	0	0	0	0	0	0	0	0	0	0	157335	187132	0
1651665682852	-14.152	-7.808	1012.6	0.14	-1.05	0	-351	42	-1080	0	0	0	0	0	0	0	0	0	0	0	0	0	0	0	0	0	0	157273	187091	0
1651665682862	-13.176	-4.392	1018.456	0	-0.98	0	-348	39	-1078.5	0	0	0	0	0	0	0	0	0	0	0	0	0	0	0	0	0	0	157204	187038	0
1651665682872	-17.568	-1.952	1009.184	0.14	-1.19	0	-349.5	39	-1083	0	0	0	0	0	0	0	0	0	0	0	0	0	0	0	0	0	0	157208	187027	0
1651665682882	-12.688	1.464	1016.504	0.14	-1.12	0.07	-351	37.5	-1083	0	0	0	0	0	0	0	0	0	0	0	0	0	0	0	0	0	0	157175	187013	0
1651665682892	-14.152	-1.464	1013.088	0.14	-1.05	0.07	-349.5	39	-1083	0	0	0	0	0	0	0	0	0	0	0	0	0	0	0	0	0	0	157178	187024	0
1651665682902	-12.2	-3.904	1013.576	0.07	-1.05	0.07	-348	42	-1083	0	0	0	0	0	0	0	0	0	0	0	0	0	0	0	0	0	0	157233	187141	0
1651665682912	-9.272	4.88	1014.064	0.14	-0.91	0	-349.5	43.5	-1081.5	0	0	0	0	0	0	0	0	0	0	0	0	0	0	0	0	0	0	157361	187290	0
1651665682922	-13.176	-2.928	1015.528	0.07	-1.05	0.07	-351	42	-1084.5	0	0	0	0	0	0	0	0	0	0	0	0	0	0	0	0	0	0	157439	187408	0
1651665682932	-10.736	-3.904	1016.504	0.07	-0.98	0.21	-346.5	39	-1081.5	0	0	0	0	0	0	0	0	0	0	0	0	0	0	0	0	0	0	157478	187452	0
1651665682942	-16.104	2.928	1012.112	0.07	-0.91	0.14	-349.5	36	-1078.5	0	0	0	0	0	0	0	0	0	0	0	0	0	0	0	0	0	0	157485	187492	0
1651665682952	-17.08	-3.904	1015.04	0.07	-1.05	0.07	-349.5	36	-1077	0	0	0	0	0	0	0	0	0	0	0	0	0	0	0	0	0	0	157507	187501	0
1651665682962	-20.008	-7.32	1017.48	0.21	-0.98	0.07	-349.5	33	-1080	0	0	0	0	0	0	0	0	0	0	0	0	0	0	0	0	0	0	157493	187511	0
1651665682972	-11.224	-7.32	1015.528	0	-1.05	0.07	-351	36	-1080	0	0	0	0	0	0	0	0	0	0	0	0	0	0	0	0	0	0	157484	187492	0
1651665682982	-11.224	5.856	1015.528	0.21	-1.05	0.07	-349.5	43.5	-1077	0	0	0	0	0	0	0	0	0	0	0	0	0	0	0	0	0	0	157454	187443	0
1651665682992	-13.664	-1.952	1015.04	0.07	-0.98	0	-349.5	45	-1084.5	0	0	0	0	0	0	0	0	0	0	0	0	0	0	0	0	0	0	157395	187360	0
1651665683002	-14.152	-0.976	1013.088	0.07	-0.91	0.07	-351	46.5	-1084.5	0	0	0	0	0	0	0	0	0	0	0	0	0	0	0	0	0	0	157311	187257	0
1651665683012	-13.176	-6.344	1015.528	0.14	-0.98	0.07	-355.5	43.5	-1078.5	0	0	0	0	0	0	0	0	0	0	0	0	0	0	0	0	0	0	157231	187155	0
1651665683022	-13.664	0	1017.48	0.14	-0.98	0	-352.5	42	-1077	0	0	0	0	0	0	0	0	0	0	0	0	0	0	0	0	0	0	157175	187075	0
1651665683033	-12.688	-3.904	1016.504	0.07	-1.05	0.07	-345	40.5	-1080	0	0	0	0	0	0	0	0	0	0	0	0	0	0	0	0	0	0	157117	187014	0
1651665683043	-12.688	-8.784	1015.528	0.07	-0.98	0.07	-343.5	37.5	-1080	0	0	0	0	0	0	0	0	0	0	0	0	0	0	0	0	0	0	157061	186956	0
1651665683053	-19.032	-4.88	1015.04	0.07	-1.12	0	-349.5	42	-1086	0	0	0	0	0	0	0	0	0	0	0	0	0	0	0	0	0	0	157006	186899	0
1651665683063	-11.224	-4.392	1012.112	0.14	-1.05	0.14	-351	43.5	-1089	0	0	0	0	0	0	0	0	0	0	0	0	0	0	0	0	0	0	156974	186884	0
1651665683073	-13.176	-3.416	1013.088	-0.07	-1.05	0.14	-349.5	39	-1084.5	0	0	0	0	0	0	0	0	0	0	0	0	0	0	0	0	0	0	156976	186896	0
1651665683083	-12.2	-4.392	1018.944	0.07	-0.84	0.07	-348	48	-1080	0	0	0	0	0	0	0	0	0	0	0	0	0	0	0	0	0	0	156992	186890	0
1651665683093	-15.616	3.904	1010.16	0.07	-1.05	0	-346.5	43.5	-1074	0	0	0	0	0	0	0	0	0	0	0	0	0	0	0	0	0	0	157006	186899	0
1651665683103	-7.808	-3.416	1014.552	0.07	-1.05	0.14	-346.5	40.5	-1075.5	0	0	0	0	0	0	0	0	0	0	0	0	0	0	0	0	0	0	157032	186887	0
1651665683113	-11.712	-6.832	1011.624	0.07	-0.91	0.14	-349.5	43.5	-1080	0	0	0	0	0	0	0	0	0	0	0	0	0	0	0	0	0	0	157011	186810	0
1651665683123	-17.568	-0.488	1013.088	0.14	-1.05	0.07	-354	39	-1077	0	0	0	0	0	0	0	0	0	0	0	0	0	0	0	0	0	0	156987	186709	0
1651665683133	-16.104	-2.44	1016.992	0.07	-1.05	0.07	-352.5	40.5	-1078.5	0	0	0	0	0	0	0	0	0	0	0	0	0	0	0	0	0	0	156923	186564	0
1651665683143	-21.96	-8.296	1012.6	0.07	-1.05	0.14	-346.5	40.5	-1078.5	0	0	0	0	0	0	0	0	0	0	0	0	0	0	0	0	0	0	156851	186439	0
1651665683153	-12.688	-4.392	1010.648	0.14	-1.05	0.14	-352.5	37.5	-1077	0	0	0	0	0	0	0	0	0	0	0	0	0	0	0	0	0	0	156775	186290	0
1651665683163	-16.104	-2.44	1009.184	0.14	-0.98	0.14	-354	34.5	-1080	0	0	0	0	0	0	0	0	0	0	0	0	0	0	0	0	0	0	156676	186149	0
1651665683173	-15.128	-1.952	1014.064	0.14	-1.05	0.07	-352.5	37.5	-1081.5	0	0	0	0	0	0	0	0	0	0	0	0	0	0	0	0	0	0	156594	186044	0
1651665683183	-9.272	3.904	1009.672	0.07	-0.98	0.07	-351	42	-1084.5	0	0	0	0	0	0	0	0	0	0	0	0	0	0	0	0	0	0	156541	185953	0
1651665683193	-12.2	-5.856	1012.112	0.07	-0.91	0.07	-351	45	-1078.5	0	0	0	0	0	0	0	0	0	0	0	0	0	0	0	0	0	0	156489	185877	0
1651665683203	-8.296	-4.88	1016.504	0.14	-0.98	0.07	-352.5	43.5	-1078.5	0	0	0	0	0	0	0	0	0	0	0	0	0	0	0	0	0	0	156458	185822	0
1651665683213	-15.128	-2.44	1013.576	0.14	-1.05	0.07	-352.5	42	-1081.5	0	0	0	0	0	0	0	0	0	0	0	0	0	0	0	0	0	0	156464	185838	0
1651665683223	-14.64	-4.392	1015.528	0	-1.05	0.14	-354	43.5	-1080	0	0	0	0	0	0	0	0	0	0	0	0	0	0	0	0	0	0	156472	185842	0
1651665683233	-12.688	-4.392	1014.552	0.21	-1.19	0.07	-352.5	42	-1080	0	0	0	0	0	0	0	0	0	0	0	0	0	0	0	0	0	0	156467	185862	0
1651665683243	-8.784	0.488	1012.112	0.14	-1.19	0.07	-346.5	36	-1084.5	0	0	0	0	0	0	0	0	0	0	0	0	0	0	0	0	0	0	156428	185795	0
1651665683253	-13.664	-10.736	1014.064	0.07	-1.19	0.14	-351	34.5	-1083	0	0	0	0	0	0	0	0	0	0	0	0	0	0	0	0	0	0	156373	185715	0
1651665683263	-12.688	-0.976	1011.136	0.07	-0.7	0.14	-358.5	37.5	-1081.5	0	0	0	0	0	0	0	0	0	0	0	0	0	0	0	0	0	0	156320	185626	0
1651665683273	-18.056	-3.904	1013.576	0	-0.91	0.07	-358.5	43.5	-1081.5	0	0	0	0	0	0	0	0	0	0	0	0	0	0	0	0	0	0	156267	185577	0
1651665683283	-15.616	-2.44	1012.112	0.14	-1.05	0	-355.5	48	-1081.5	0	0	0	0	0	0	0	0	0	0	0	0	0	0	0	0	0	0	156194	185477	0
1651665683293	-13.176	1.464	1020.408	0.14	-1.05	0	-354	40.5	-1077	0	0	0	0	0	0	0	0	0	0	0	0	0	0	0	0	0	0	156117	185384	0
1651665683303	-15.616	-2.44	1012.112	0.14	-1.05	0	-351	39	-1075.5	0	0	0	0	0	0	0	0	0	0	0	0	0	0	0	0	0	0	156069	185326	0
1651665683313	-11.712	2.44	1012.112	0.14	-1.05	0.07	-349.5	42	-1084.5	0	0	0	0	0	0	0	0	0	0	0	0	0	0	0	0	0	0	156022	185290	0
1651665683323	-12.688	-1.464	1010.648	0	-1.12	0.07	-349.5	42	-1083	0	0	0	0	0	0	0	0	0	0	0	0	0	0	0	0	0	0	155987	185257	0
1651665683333	-21.96	0.976	1015.528	0.21	-1.12	0.07	-354	42	-1083	0	0	0	0	0	0	0	0	0	0	0	0	0	0	0	0	0	0	156002	185284	0
1651665683343	-18.544	0.488	1010.648	0	-0.98	0.07	-352.5	42	-1084.5	0	0	0	0	0	0	0	0	0	0	0	0	0	0	0	0	0	0	156023	185320	0
1651665683353	-17.08	0.976	1017.968	0.21	-0.98	0.07	-348	42	-1084.5	0	0	0	0	0	0	0	0	0	0	0	0	0	0	0	0	0	0	156039	185348	0
1651665683363	-7.808	-10.248	1012.6	0.07	-0.91	0.14	-345	37.5	-1083	0	0	0	0	0	0	0	0	0	0	0	0	0	0	0	0	0	0	156095	185383	0
1651665683373	-13.664	-6.832	1013.576	0	-0.98	0.07	-349.5	34.5	-1086	0	0	0	0	0	0	0	0	0	0	0	0	0	0	0	0	0	0	156124	185434	0
1651665683383	-20.984	-11.224	1018.944	0.07	-0.98	0.14	-352.5	39	-1087.5	0	0	0	0	0	0	0	0	0	0	0	0	0	0	0	0	0	0	156169	185463	0
1651665683393	-21.96	-1.952	1010.16	0.07	-1.05	0.07	-349.5	37.5	-1089	0	0	0	0	0	0	0	0	0	0	0	0	0	0	0	0	0	0	156168	185436	0
1651665683403	-16.592	0	1013.088	0.14	-0.91	0.07	-346.5	36	-1080	0	0	0	0	0	0	0	0	0	0	0	0	0	0	0	0	0	0	156107	185378	0
1651665683413	-12.688	5.856	1009.184	0	-0.91	0.07	-352.5	40.5	-1077	0	0	0	0	0	0	0	0	0	0	0	0	0	0	0	0	0	0	156033	185272	0
1651665683423	-7.32	-2.44	1012.112	0.14	-0.98	0.07	-354	37.5	-1078.5	0	0	0	0	0	0	0	0	0	0	0	0	0	0	0	0	0	0	155939	185140	0
1651665683433	-16.104	3.904	1014.064	0.07	-0.98	0.14	-352.5	39	-1077	0	0	0	0	0	0	0	0	0	0	0	0	0	0	0	0	0	0	155845	185002	0
1651665683443	-13.664	-8.296	1011.136	0.14	-1.05	0.14	-352.5	40.5	-1080	0	0	0	0	0	0	0	0	0	0	0	0	0	0	0	0	0	0	155782	184899	0
1651665683453	-18.056	-4.88	1005.768	0.14	-0.91	0.07	-355.5	36	-1081.5	0	0	0	0	0	0	0	0	0	0	0	0	0	0	0	0	0	0	155697	184783	0
1651665683463	-14.152	-8.296	1015.04	0	-1.05	0.14	-354	40.5	-1077	0	0	0	0	0	0	0	0	0	0	0	0	0	0	0	0	0	0	155629	184694	0
1651665683473	-18.544	-5.856	1014.064	0.07	-1.05	0.07	-351	42	-1081.5	0	0	0	0	0	0	0	0	0	0	0	0	0	0	0	0	0	0	155603	184635	0
1651665683483	-9.272	-3.416	1008.208	0.07	-0.98	0.07	-352.5	40.5	-1083	0	0	0	0	0	0	0	0	0	0	0	0	0	0	0	0	0	0	155595	184615	0
1651665683493	-20.008	-5.856	1016.504	0.07	-0.98	0.07	-354	37.5	-1081.5	0	0	0	0	0	0	0	0	0	0	0	0	0	0	0	0	0	0	155631	184633	0
1651665683503	-13.176	-3.416	1016.016	0.14	-1.05	0	-354	37.5	-1078.5	0	0	0	0	0	0	0	0	0	0	0	0	0	0	0	0	0	0	155661	184663	0
1651665683513	-18.544	-0.976	1011.624	0.07	-1.12	0.07	-352.5	39	-1077	0	0	0	0	0	0	0	0	0	0	0	0	0	0	0	0	0	0	155676	184660	0
1651665683523	-12.688	-2.928	1015.04	0.07	-1.05	0.07	-352.5	33	-1078.5	0	0	0	0	0	0	0	0	0	0	0	0	0	0	0	0	0	0	155675	184672	0
1651665683533	-11.224	-0.976	1011.136	0.14	-0.98	0	-351	33	-1083	0	0	0	0	0	0	0	0	0	0	0	0	0	0	0	0	0	0	155657	184652	0
1651665683543	-20.008	-0.488	1009.672	0.07	-1.12	0.07	-346.5	42	-1086	0	0	0	0	0	0	0	0	0	0	0	0	0	0	0	0	0	0	155617	184591	0
1651665683553	-10.736	-2.928	1009.184	0.14	-0.98	0.14	-348	42	-1089	0	0	0	0	0	0	0	0	0	0	0	0	0	0	0	0	0	0	155582	184534	0
1651665683563	-14.64	-0.976	1014.064	0.07	-1.05	0.07	-348	39	-1081.5	0	0	0	0	0	0	0	0	0	0	0	0	0	0	0	0	0	0	155534	184504	0
1651665683573	-14.64	-10.736	1013.576	0.14	-1.05	0.07	-352.5	39	-1083	0	0	0	0	0	0	0	0	0	0	0	0	0	0	0	0	0	0	155502	184465	0
1651665683583	-17.568	-4.392	1005.768	-0.07	-1.05	0.14	-352.5	34.5	-1089	0	0	0	0	0	0	0	0	0	0	0	0	0	0	0	0	0	0	155486	184457	0
1651665683593	-15.128	-8.296	1008.208	0.14	-0.98	0.07	-351	40.5	-1083	0	0	0	0	0	0	0	0	0	0	0	0	0	0	0	0	0	0	155490	184470	0
1651665683603	-17.568	-7.808	1013.088	-0.07	-1.05	0.14	-349.5	45	-1080	0	0	0	0	0	0	0	0	0	0	0	0	0	0	0	0	0	0	155516	184521	0
1651665683613	-13.664	-6.832	1014.552	-0.07	-1.05	0.07	-346.5	43.5	-1081.5	0	0	0	0	0	0	0	0	0	0	0	0	0	0	0	0	0	0	155538	184563	0
1651665683623	-17.08	0	1015.528	0.07	-0.98	0.07	-348	43.5	-1083	0	0	0	0	0	0	0	0	0	0	0	0	0	0	0	0	0	0	155560	184594	0
1651665683633	-15.128	1.464	1015.528	0.14	-0.98	0.14	-352.5	42	-1078.5	0	0	0	0	0	0	0	0	0	0	0	0	0	0	0	0	0	0	155577	184600	0
1651665683643	-12.2	-1.952	1010.16	0.07	-0.98	0.07	-352.5	37.5	-1078.5	0	0	0	0	0	0	0	0	0	0	0	0	0	0	0	0	0	0	155537	184518	0
1651665683653	-18.544	-2.928	1012.6	0	-1.05	0.14	-349.5	40.5	-1078.5	0	0	0	0	0	0	0	0	0	0	0	0	0	0	0	0	0	0	155442	184373	0
1651665683663	-15.128	-0.488	1009.184	0.07	-0.98	0.14	-351	39	-1075.5	0	0	0	0	0	0	0	0	0	0	0	0	0	0	0	0	0	0	155343	184258	0
1651665683673	-14.64	-3.904	1014.552	0.07	-1.05	0.21	-349.5	36	-1080	0	0	0	0	0	0	0	0	0	0	0	0	0	0	0	0	0	0	155300	184177	0
1651665683683	-12.2	-1.952	1016.992	0.07	-1.05	0.21	-354	42	-1084.5	0	0	0	0	0	0	0	0	0	0	0	0	0	0	0	0	0	0	155222	184095	0
1651665683693	-12.688	-2.928	1012.112	0.07	-1.05	0.07	-354	43.5	-1083	0	0	0	0	0	0	0	0	0	0	0	0	0	0	0	0	0	0	155196	184051	0
1651665683703	-16.104	-3.904	1013.576	0.07	-0.98	0.14	-352.5	45	-1083	0	0	0	0	0	0	0	0	0	0	0	0	0	0	0	0	0	0	155188	184031	0
1651665683713	-13.176	-6.344	1012.6	0.14	-0.98	0.07	-349.5	45	-1084.5	0	0	0	0	0	0	0	0	0	0	0	0	0	0	0	0	0	0	155180	184039	0
1651665683723	-16.104	-2.44	1016.992	0.14	-1.05	0.07	-349.5	42	-1080	0	0	0	0	0	0	0	0	0	0	0	0	0	0	0	0	0	0	155180	184065	0
1651665683733	-17.568	-0.976	1008.696	0.14	-1.05	0.07	-352.5	46.5	-1081.5	0	0	0	0	0	0	0	0	0	0	0	0	0	0	0	0	0	0	155205	184051	0
1651665683743	-13.176	-7.32	1011.624	0.28	-0.98	0.07	-354	48	-1086	0	0	0	0	0	0	0	0	0	0	0	0	0	0	0	0	0	0	155195	184046	0
1651665683753	-15.616	-4.88	1014.064	0.07	-0.98	0.14	-355.5	39	-1080	0	0	0	0	0	0	0	0	0	0	0	0	0	0	0	0	0	0	155173	184034	0
1651665683763	-7.32	2.44	1006.256	0	-1.05	0.07	-352.5	42	-1071	0	0	0	0	0	0	0	0	0	0	0	0	0	0	0	0	0	0	155133	183991	0
1651665683773	-14.64	-4.392	1013.088	0.07	-0.98	0.07	-349.5	42	-1072.5	0	0	0	0	0	0	0	0	0	0	0	0	0	0	0	0	0	0	155105	183949	0
1651665683783	-12.688	-5.856	1021.384	0	-1.05	0	-354	37.5	-1075.5	0	0	0	0	0	0	0	0	0	0	0	0	0	0	0	0	0	0	155049	183905	0
1651665683793	-19.032	-1.464	1014.552	0.07	-0.98	0.14	-355.5	34.5	-1081.5	0	0	0	0	0	0	0	0	0	0	0	0	0	0	0	0	0	0	154993	183839	0
1651665683803	-16.104	-1.464	1016.992	0.07	-1.05	0	-351	33	-1081.5	0	0	0	0	0	0	0	0	0	0	0	0	0	0	0	0	0	0	154932	183757	0
1651665683813	-14.64	-3.904	1015.528	0.07	-0.98	0.07	-349.5	39	-1078.5	0	0	0	0	0	0	0	0	0	0	0	0	0	0	0	0	0	0	154895	183724	0
1651665683823	-18.056	-3.904	1016.016	0.07	-0.91	0.07	-351	42	-1075.5	0	0	0	0	0	0	0	0	0	0	0	0	0	0	0	0	0	0	154876	183712	0
1651665683833	-26.352	-0.488	1009.184	0.07	-1.12	0.07	-352.5	37.5	-1075.5	0	0	0	0	0	0	0	0	0	0	0	0	0	0	0	0	0	0	154862	183718	0
1651665683843	-16.104	-4.392	1013.088	0	-0.91	0.07	-346.5	36	-1080	0	0	0	0	0	0	0	0	0	0	0	0	0	0	0	0	0	0	154856	183713	0
1651665683853	-16.104	-4.88	1012.112	0.14	-0.98	0.07	-349.5	40.5	-1080	0	0	0	0	0	0	0	0	0	0	0	0	0	0	0	0	0	0	154845	183712	0
1651665683863	-17.568	0.976	1015.528	0.21	-0.77	0.07	-354	39	-1080	0	0	0	0	0	0	0	0	0	0	0	0	0	0	0	0	0	0	154830	183717	0
1651665683874	6.832	2.928	1039.44	-0.14	-2.52	0.14	-352.5	40.5	-1081.5	0	0	0	0	0	0	0	0	0	0	0	0	0	0	0	0	0	0	154834	183749	0
1651665683884	-21.472	4.392	1015.04	0.14	-0.56	0.14	-352.5	45	-1084.5	0	0	0	0	0	0	0	0	0	0	0	0	0	0	0	0	0	0	154843	183805	0
1651665683894	-15.616	-7.808	1005.28	0	-0.84	0.21	-351	40.5	-1084.5	0	0	0	0	0	0	0	0	0	0	0	0	0	0	0	0	0	0	154832	183843	0
1651665683904	-15.616	-2.928	1022.848	0.14	-1.33	0.14	-352.5	39	-1081.5	0	0	0	0	0	0	0	0	0	0	0	0	0	0	0	0	0	0	154831	183875	0
1651665683914	-14.64	-4.392	1013.576	0.07	-0.98	0.14	-355.5	42	-1081.5	0	0	0	0	0	0	0	0	0	0	0	0	0	0	0	0	0	0	154850	183897	0
1651665683924	-14.64	-5.368	1011.624	0	-0.91	0.14	-354	42	-1083	0	0	0	0	0	0	0	0	0	0	0	0	0	0	0	0	0	0	154861	183949	0
1651665683934	-13.664	-5.368	1015.528	0.14	-1.05	0.14	-349.5	42	-1083	0	0	0	0	0	0	0	0	0	0	0	0	0	0	0	0	0	0	154859	183982	0
1651665683944	-20.496	-1.952	1011.624	0.07	-0.84	0.14	-351	37.5	-1081.5	0	0	0	0	0	0	0	0	0	0	0	0	0	0	0	0	0	0	154872	184027	0
1651665683954	-17.08	0	1010.648	0.14	-0.98	0.07	-355.5	37.5	-1081.5	0	0	0	0	0	0	0	0	0	0	0	0	0	0	0	0	0	0	154858	184035	0
1651665683964	-15.616	-2.44	1013.088	0.07	-0.91	0	-357	39	-1084.5	0	0	0	0	0	0	0	0	0	0	0	0	0	0	0	0	0	0	154869	184043	0
1651665683974	-13.664	-0.976	1014.064	0.14	-0.98	0.07	-355.5	40.5	-1084.5	0	0	0	0	0	0	0	0	0	0	0	0	0	0	0	0	0	0	154886	184072	0
1651665683984	-10.736	-3.904	1012.112	0.07	-1.05	0	-349.5	43.5	-1084.5	0	0	0	0	0	0	0	0	0	0	0	0	0	0	0	0	0	0	154910	184074	0
1651665683994	-19.032	-4.88	1015.04	0.28	-0.84	0.07	-348	39	-1080	0	0	0	0	0	0	0	0	0	0	0	0	0	0	0	0	0	0	154928	184098	0
1651665684004	-20.496	-5.368	1011.624	-0.07	-0.98	0.14	-351	37.5	-1078.5	0	0	0	0	0	0	0	0	0	0	0	0	0	0	0	0	0	0	154942	184136	0
1651665684014	-22.448	1.464	1016.016	0.07	-0.98	0.07	-355.5	45	-1080	0	0	0	0	0	0	0	0	0	0	0	0	0	0	0	0	0	0	154968	184184	0
1651665684024	-14.64	3.416	1018.456	0.07	-0.98	0	-357	43.5	-1083	0	0	0	0	0	0	0	0	0	0	0	0	0	0	0	0	0	0	154991	184210	0
1651665684034	-8.784	2.928	1006.256	0.21	-1.05	0.07	-355.5	40.5	-1080	0	0	0	0	0	0	0	0	0	0	0	0	0	0	0	0	0	0	154989	184203	0
1651665684044	-10.736	1.952	1021.384	0.14	-1.12	0.07	-351	42	-1078.5	0	0	0	0	0	0	0	0	0	0	0	0	0	0	0	0	0	0	154955	184166	0
1651665684054	-11.224	0	1007.232	0.07	-0.98	0.14	-348	39	-1080	0	0	0	0	0	0	0	0	0	0	0	0	0	0	0	0	0	0	154955	184164	0
1651665684064	-11.712	-1.952	1012.6	0.14	-0.98	0.14	-349.5	40.5	-1081.5	0	0	0	0	0	0	0	0	0	0	0	0	0	0	0	0	0	0	154944	184180	0
1651665684074	-13.176	-3.416	1015.528	0	-0.98	0.14	-351	42	-1081.5	0	0	0	0	0	0	0	0	0	0	0	0	0	0	0	0	0	0	154939	184218	0
1651665684084	-11.712	-6.832	1012.112	0.14	-1.05	0.07	-352.5	40.5	-1077	0	0	0	0	0	0	0	0	0	0	0	0	0	0	0	0	0	0	154970	184259	0
1651665684094	-17.08	-8.296	1014.552	0	-1.05	0	-354	36	-1077	0	0	0	0	0	0	0	0	0	0	0	0	0	0	0	0	0	0	154990	184330	0
1651665684104	-19.032	-7.808	1011.136	0	-0.98	0	-352.5	39	-1078.5	0	0	0	0	0	0	0	0	0	0	0	0	0	0	0	0	0	0	155062	184430	0
1651665684114	-19.032	3.416	1016.992	-0.07	-0.91	0	-351	43.5	-1078.5	0	0	0	0	0	0	0	0	0	0	0	0	0	0	0	0	0	0	155139	184535	0
1651665684124	-14.152	6.344	1009.672	0.07	-1.05	0.21	-352.5	42	-1077	0	0	0	0	0	0	0	0	0	0	0	0	0	0	0	0	0	0	155202	184632	0
1651665684134	-8.784	1.464	1011.624	0.21	-1.05	0.14	-352.5	34.5	-1074	0	0	0	0	0	0	0	0	0	0	0	0	0	0	0	0	0	0	155267	184702	0
1651665684144	-11.224	0	1016.992	0	-0.98	0.14	-352.5	34.5	-1075.5	0	0	0	0	0	0	0	0	0	0	0	0	0	0	0	0	0	0	155308	184738	0
1651665684154	-17.08	0	1013.088	0.21	-1.05	0.14	-352.5	37.5	-1081.5	0	0	0	0	0	0	0	0	0	0	0	0	0	0	0	0	0	0	155330	184761	0
1651665684164	-19.52	-3.416	1010.648	0.07	-1.05	0.07	-352.5	36	-1084.5	0	0	0	0	0	0	0	0	0	0	0	0	0	0	0	0	0	0	155368	184784	0
1651665684174	-15.128	-4.88	1013.576	0.07	-0.91	0.07	-349.5	33	-1084.5	0	0	0	0	0	0	0	0	0	0	0	0	0	0	0	0	0	0	155392	184796	0
1651665684184	-9.76	-2.44	1015.528	0.14	-1.05	0.07	-351	34.5	-1084.5	0	0	0	0	0	0	0	0	0	0	0	0	0	0	0	0	0	0	155404	184826	0
1651665684194	-12.688	-4.88	1012.6	0.07	-1.12	0.14	-352.5	40.5	-1084.5	0	0	0	0	0	0	0	0	0	0	0	0	0	0	0	0	0	0	155441	184867	0
1651665684204	-11.224	-9.272	1010.16	0.14	-0.98	0.14	-355.5	43.5	-1084.5	0	0	0	0	0	0	0	0	0	0	0	0	0	0	0	0	0	0	155466	184961	0
1651665684214	-18.544	-4.88	1011.624	0	-0.91	0.07	-358.5	48	-1080	0	0	0	0	0	0	0	0	0	0	0	0	0	0	0	0	0	0	155531	185057	0
1651665684224	-18.544	0	1013.088	0.14	-1.05	0.07	-352.5	45	-1080	0	0	0	0	0	0	0	0	0	0	0	0	0	0	0	0	0	0	155577	185160	0
1651665684234	-16.104	-5.856	1008.696	0.21	-0.98	0.07	-349.5	40.5	-1080	0	0	0	0	0	0	0	0	0	0	0	0	0	0	0	0	0	0	155612	185262	0
1651665684244	-11.224	-3.904	1011.136	0.21	-0.98	0	-348	40.5	-1083	0	0	0	0	0	0	0	0	0	0	0	0	0	0	0	0	0	0	155651	185348	0
1651665684254	-8.296	2.44	1018.456	-0.14	-1.05	0.14	-348	39	-1084.5	0	0	0	0	0	0	0	0	0	0	0	0	0	0	0	0	0	0	155716	185393	0
1651665684264	-15.128	-0.488	1014.064	0.14	-0.91	0.21	-351	39	-1083	0	0	0	0	0	0	0	0	0	0	0	0	0	0	0	0	0	0	155714	185437	0
1651665684274	-9.272	-3.904	1013.088	0.07	-1.05	0.07	-355.5	37.5	-1090.5	0	0	0	0	0	0	0	0	0	0	0	0	0	0	0	0	0	0	155740	185474	0
1651665684284	-17.08	-9.76	1012.112	0	-1.05	0.07	-351	33	-1084.5	0	0	0	0	0	0	0	0	0	0	0	0	0	0	0	0	0	0	155768	185549	0
1651665684294	-16.104	0	1014.552	0	-0.91	0.07	-352.5	39	-1080	0	0	0	0	0	0	0	0	0	0	0	0	0	0	0	0	0	0	155783	185599	0
1651665684304	-15.128	-2.928	1010.648	0	-0.77	0.07	-358.5	43.5	-1083	0	0	0	0	0	0	0	0	0	0	0	0	0	0	0	0	0	0	155809	185627	0
1651665684314	-18.056	-4.88	1009.184	0.14	-1.12	0.07	-355.5	40.5	-1081.5	0	0	0	0	0	0	0	0	0	0	0	0	0	0	0	0	0	0	155816	185667	0
1651665684324	-13.176	-3.904	1013.576	-0.07	-0.98	0.07	-355.5	40.5	-1077	0	0	0	0	0	0	0	0	0	0	0	0	0	0	0	0	0	0	155837	185682	0
1651665684334	-14.64	-3.904	1014.064	0.07	-0.98	0.07	-351	40.5	-1078.5	0	0	0	0	0	0	0	0	0	0	0	0	0	0	0	0	0	0	155850	185710	0
1651665684344	-11.712	-2.44	1019.92	0	-1.12	0.07	-346.5	39	-1086	0	0	0	0	0	0	0	0	0	0	0	0	0	0	0	0	0	0	155890	185732	0
1651665684354	-15.616	-2.44	997.96	0.07	-0.91	0.07	-351	40.5	-1086	0	0	0	0	0	0	0	0	0	0	0	0	0	0	0	0	0	0	155877	185723	0
1651665684364	-12.2	-1.464	1021.872	0.21	-0.91	0.21	-349.5	40.5	-1083	0	0	0	0	0	0	0	0	0	0	0	0	0	0	0	0	0	0	155859	185701	0
1651665684374	-5.856	-5.856	1016.016	-0.07	-1.19	0.21	-346.5	40.5	-1078.5	0	0	0	0	0	0	0	0	0	0	0	0	0	0	0	0	0	0	155876	185728	0
1651665684384	20.496	3.904	930.616	0.28	-1.05	0.14	-345	39	-1074	0	0	0	0	0	0	0	0	0	0	0	0	0	0	0	0	0	0	155873	185697	0
1651665684394	-14.152	-10.248	950.624	0.07	0.63	-0.07	-346.5	39	-1072.5	0	0	0	0	0	0	0	0	0	0	0	0	0	0	0	0	0	0	155853	185679	0
1651665684404	-14.64	-12.2	990.152	0.07	-0.98	0	-348	40.5	-1075.5	0	0	0	0	0	0	0	0	0	0	0	0	0	0	0	0	0	0	155853	185637	0
1651665684414	-38.552	-3.416	1047.736	0.07	-1.33	0.07	-352.5	43.5	-1078.5	0	0	0	0	0	0	0	0	0	0	0	0	0	0	0	0	0	0	155807	185610	0
1651665684424	-34.648	-6.832	1026.752	0.14	-1.19	0.07	-352.5	43.5	-1078.5	0	0	0	0	0	0	0	0	0	0	0	0	0	0	0	0	0	0	155805	185587	0
1651665684434	-22.936	-0.488	1013.088	0	-0.63	-0.07	-348	40.5	-1077	0	0	0	0	0	0	0	0	0	0	0	0	0	0	0	0	0	0	155796	185562	0
1651665684444	-9.272	1.952	1018.456	0.14	-1.19	0.07	-348	40.5	-1083	0	0	0	0	0	0	0	0	0	0	0	0	0	0	0	0	0	0	155791	185519	0
1651665684454	-6.344	-1.464	1014.064	0.14	-0.77	0.14	-343.5	43.5	-1087.5	0	0	0	0	0	0	0	0	0	0	0	0	0	0	0	0	0	0	155780	185471	0
1651665684464	-14.152	5.856	1009.672	0.14	-1.12	0.21	-345	40.5	-1083	0	0	0	0	0	0	0	0	0	0	0	0	0	0	0	0	0	0	155787	185448	0
1651665684474	-13.176	-1.952	1021.384	0	-0.91	0.21	-351	37.5	-1083	0	0	0	0	0	0	0	0	0	0	0	0	0	0	0	0	0	0	155777	185435	0
1651665684484	-9.272	-3.904	1012.6	0.07	-1.05	0.07	-354	42	-1078.5	0	0	0	0	0	0	0	0	0	0	0	0	0	0	0	0	0	0	155763	185394	0
1651665684494	-8.296	-10.248	1015.528	0.14	-1.12	0	-351	42	-1081.5	0	0	0	0	0	0	0	0	0	0	0	0	0	0	0	0	0	0	155745	185334	0
1651665684504	-15.616	-8.784	1017.48	0.28	-1.12	-0.07	-349.5	45	-1084.5	0	0	0	0	0	0	0	0	0	0	0	0	0	0	0	0	0	0	155691	185256	0
1651665684514	-14.64	-3.416	1013.576	-0.21	-1.05	-0.07	-345	46.5	-1075.5	0	0	0	0	0	0	0	0	0	0	0	0	0	0	0	0	0	0	155644	185189	0
1651665684524	-9.76	-3.904	1014.064	0.28	-0.91	0	-345	40.5	-1078.5	0	0	0	0	0	0	0	0	0	0	0	0	0	0	0	0	0	0	155631	185141	0
1651665684534	-20.496	5.856	1008.696	0	-0.98	0.14	-354	34.5	-1078.5	0	0	0	0	0	0	0	0	0	0	0	0	0	0	0	0	0	0	155587	185116	0
1651665684544	-15.128	6.832	1022.36	0.14	-0.98	0	-354	34.5	-1084.5	0	0	0	0	0	0	0	0	0	0	0	0	0	0	0	0	0	0	155581	185105	0
1651665684554	-20.008	6.832	1012.6	0.21	-1.05	0.14	-352.5	45	-1084.5	0	0	0	0	0	0	0	0	0	0	0	0	0	0	0	0	0	0	155576	185118	0
1651665684564	-12.688	6.344	1016.016	0.14	-1.12	0.14	-354	42	-1078.5	0	0	0	0	0	0	0	0	0	0	0	0	0	0	0	0	0	0	155596	185131	0
1651665684574	-6.832	-3.904	1012.112	0.14	-0.91	0.14	-354	40.5	-1078.5	0	0	0	0	0	0	0	0	0	0	0	0	0	0	0	0	0	0	155604	185120	0
1651665684584	-11.224	-9.272	1009.672	0.14	-1.05	0.14	-351	48	-1080	0	0	0	0	0	0	0	0	0	0	0	0	0	0	0	0	0	0	155585	185122	0
1651665684594	-17.568	-12.688	1017.968	0.07	-1.05	0.07	-351	45	-1080	0	0	0	0	0	0	0	0	0	0	0	0	0	0	0	0	0	0	155593	185125	0
1651665684604	-15.128	-9.272	1020.896	0	-0.98	0.21	-351	42	-1078.5	0	0	0	0	0	0	0	0	0	0	0	0	0	0	0	0	0	0	155578	185080	0
1651665684614	-15.616	-2.44	1013.576	0.07	-0.91	0.07	-352.5	40.5	-1080	0	0	0	0	0	0	0	0	0	0	0	0	0	0	0	0	0	0	155520	185029	0
1651665684624	-18.056	0.976	1015.528	0.21	-1.05	0	-352.5	40.5	-1083	0	0	0	0	0	0	0	0	0	0	0	0	0	0	0	0	0	0	155509	184962	0
1651665684634	-15.616	3.904	1016.992	0.28	-1.12	0.07	-351	43.5	-1084.5	0	0	0	0	0	0	0	0	0	0	0	0	0	0	0	0	0	0	155470	184885	0
1651665684644	-15.616	6.832	1010.16	0.14	-1.19	0.14	-352.5	42	-1087.5	0	0	0	0	0	0	0	0	0	0	0	0	0	0	0	0	0	0	155411	184797	0
1651665684654	-11.712	9.272	1014.064	0.21	-0.91	0.21	-355.5	33	-1086	0	0	0	0	0	0	0	0	0	0	0	0	0	0	0	0	0	0	155360	184705	0
1651665684664	-19.032	4.88	1012.112	0.21	-1.05	0.07	-355.5	37.5	-1078.5	0	0	0	0	0	0	0	0	0	0	0	0	0	0	0	0	0	0	155321	184669	0
1651665684674	-18.056	-1.952	1012.6	0.14	-0.98	0.21	-349.5	45	-1078.5	0	0	0	0	0	0	0	0	0	0	0	0	0	0	0	0	0	0	155325	184656	0
1651665684684	-12.688	-5.368	1012.112	0.14	-0.98	0.07	-352.5	42	-1084.5	0	0	0	0	0	0	0	0	0	0	0	0	0	0	0	0	0	0	155331	184667	0
1651665684694	-14.152	-7.808	1013.088	0.14	-0.98	0.07	-349.5	40.5	-1083	0	0	0	0	0	0	0	0	0	0	0	0	0	0	0	0	0	0	155328	184648	0
1651665684704	-17.568	-9.76	1017.968	0.14	-1.05	-0.07	-348	40.5	-1083	0	0	0	0	0	0	0	0	0	0	0	0	0	0	0	0	0	0	155301	184637	0
1651665684715	-15.616	-5.368	1011.136	0	-0.98	0	-352.5	42	-1081.5	0	0	0	0	0	0	0	0	0	0	0	0	0	0	0	0	0	0	155278	184581	0
1651665684725	-15.128	-9.272	1013.576	0.07	-0.98	0.07	-354	42	-1080	0	0	0	0	0	0	0	0	0	0	0	0	0	0	0	0	0	0	155218	184547	0
1651665684735	-11.224	-1.464	1013.088	0.07	-0.91	0.07	-357	43.5	-1080	0	0	0	0	0	0	0	0	0	0	0	0	0	0	0	0	0	0	155208	184505	0
1651665684745	-20.008	-3.416	1013.576	0	-0.98	0.07	-357	40.5	-1081.5	0	0	0	0	0	0	0	0	0	0	0	0	0	0	0	0	0	0	155148	184455	0
1651665684755	-18.544	-4.392	1016.504	0.14	-0.98	0.07	-355.5	36	-1081.5	0	0	0	0	0	0	0	0	0	0	0	0	0	0	0	0	0	0	155122	184430	0
1651665684765	-11.712	0	1016.016	0.14	-1.05	0.07	-355.5	42	-1080	0	0	0	0	0	0	0	0	0	0	0	0	0	0	0	0	0	0	155091	184402	0
1651665684775	-17.08	0.976	1014.552	0.07	-1.05	0.07	-352.5	39	-1081.5	0	0	0	0	0	0	0	0	0	0	0	0	0	0	0	0	0	0	155062	184385	0
1651665684785	-13.664	-8.784	1012.6	0.28	-1.05	0.07	-348	39	-1081.5	0	0	0	0	0	0	0	0	0	0	0	0	0	0	0	0	0	0	155058	184381	0
1651665684795	-15.128	-5.368	1015.04	0.07	-1.12	0.14	-349.5	43.5	-1080	0	0	0	0	0	0	0	0	0	0	0	0	0	0	0	0	0	0	155065	184415	0
1651665684805	-14.152	-9.76	1012.6	0.07	-0.91	0.14	-354	39	-1081.5	0	0	0	0	0	0	0	0	0	0	0	0	0	0	0	0	0	0	155061	184440	0
1651665684815	-8.296	-4.392	1005.768	0.14	-0.91	0	-351	39	-1078.5	0	0	0	0	0	0	0	0	0	0	0	0	0	0	0	0	0	0	155030	184420	0
1651665684825	-13.664	-0.976	1013.576	0	-0.98	0	-349.5	45	-1081.5	0	0	0	0	0	0	0	0	0	0	0	0	0	0	0	0	0	0	155007	184423	0
1651665684835	-9.76	0.976	1014.064	0.14	-0.98	0.07	-354	46.5	-1083	0	0	0	0	0	0	0	0	0	0	0	0	0	0	0	0	0	0	154990	184410	0
1651665684845	-9.76	6.832	1006.744	0.14	-0.98	0	-355.5	45	-1078.5	0	0	0	0	0	0	0	0	0	0	0	0	0	0	0	0	0	0	154965	184420	0
1651665684855	-14.152	3.904	1017.968	0.07	-0.98	0.14	-357	43.5	-1080	0	0	0	0	0	0	0	0	0	0	0	0	0	0	0	0	0	0	154967	184455	0
1651665684865	-15.128	0.488	1006.744	0	-0.84	0.14	-355.5	43.5	-1083	0	0	0	0	0	0	0	0	0	0	0	0	0	0	0	0	0	0	154964	184470	0
1651665684875	-18.544	-0.488	1021.384	0.21	-1.05	0.07	-354	40.5	-1084.5	0	0	0	0	0	0	0	0	0	0	0	0	0	0	0	0	0	0	154972	184473	0
1651665684885	5.856	-12.2	1037.488	-0.35	-3.78	0.07	-354	40.5	-1083	0	0	0	0	0	0	0	0	0	0	0	0	0	0	0	0	0	0	154990	184459	0
1651665684895	-8.296	1.952	950.624	0.07	1.96	0.14	-355.5	42	-1078.5	0	0	0	0	0	0	0	0	0	0	0	0	0	0	0	0	0	0	154984	184459	0
1651665684905	-10.736	-12.688	1046.272	-0.14	-1.61	0.28	-349.5	39	-1074	0	0	0	0	0	0	0	0	0	0	0	0	0	0	0	0	0	0	154980	184460	0
1651665684915	-24.4	-4.392	969.656	0.14	-0.49	0	-346.5	40.5	-1075.5	0	0	0	0	0	0	0	0	0	0	0	0	0	0	0	0	0	0	154986	184452	0
1651665684925	-17.568	-17.568	1019.92	0.14	-1.12	0	-351	42	-1077	0	0	0	0	0	0	0	0	0	0	0	0	0	0	0	0	0	0	154971	184463	0
1651665684935	-22.936	-2.928	1029.192	0.14	-1.19	0	-351	42	-1080	0	0	0	0	0	0	0	0	0	0	0	0	0	0	0	0	0	0	154940	184427	0
1651665684945	-15.616	8.784	1010.648	0.14	-0.91	0	-352.5	42	-1081.5	0	0	0	0	0	0	0	0	0	0	0	0	0	0	0	0	0	0	154901	184384	0
1651665684955	-10.736	8.296	1005.28	0.21	-1.05	0.14	-352.5	40.5	-1081.5	0	0	0	0	0	0	0	0	0	0	0	0	0	0	0	0	0	0	154877	184331	0
1651665684965	-16.104	0	1010.16	0.14	-1.05	0.14	-345	40.5	-1075.5	0	0	0	0	0	0	0	0	0	0	0	0	0	0	0	0	0	0	154845	184297	0
1651665684975	-15.128	10.248	1020.408	0.14	-1.12	0.14	-340.5	39	-1071	0	0	0	0	0	0	0	0	0	0	0	0	0	0	0	0	0	0	154812	184262	0
1651665684985	-14.152	-4.88	1012.112	0	-0.98	0.14	-349.5	43.5	-1078.5	0	0	0	0	0	0	0	0	0	0	0	0	0	0	0	0	0	0	154789	184260	0
1651665684995	-10.248	-4.88	1013.088	0.14	-0.91	0.07	-352.5	46.5	-1081.5	0	0	0	0	0	0	0	0	0	0	0	0	0	0	0	0	0	0	154774	184247	0
1651665685005	-12.2	-11.224	1005.28	0.07	-0.91	0.07	-351	46.5	-1081.5	0	0	0	0	0	0	0	0	0	0	0	0	0	0	0	0	0	0	154768	184259	0
1651665685015	-16.104	-9.76	1016.504	0	-1.05	-0.07	-354	46.5	-1078.5	0	0	0	0	0	0	0	0	0	0	0	0	0	0	0	0	0	0	154776	184280	0
1651665685025	-16.592	-6.832	1016.992	0.14	-1.12	0	-352.5	40.5	-1081.5	0	0	0	0	0	0	0	0	0	0	0	0	0	0	0	0	0	0	154790	184305	0
1651665685035	-18.056	-4.88	1017.968	0	-1.05	0.07	-348	37.5	-1086	0	0	0	0	0	0	0	0	0	0	0	0	0	0	0	0	0	0	154800	184331	0
1651665685045	-19.032	2.928	1014.552	0.21	-1.05	-0.07	-343.5	39	-1084.5	0	0	0	0	0	0	0	0	0	0	0	0	0	0	0	0	0	0	154803	184341	0
1651665685055	-15.616	6.832	1015.04	0.14	-0.91	0.14	-345	45	-1083	0	0	0	0	0	0	0	0	0	0	0	0	0	0	0	0	0	0	154780	184302	0
1651665685065	-12.688	5.368	1009.672	0.21	-1.12	0.14	-345	45	-1080	0	0	0	0	0	0	0	0	0	0	0	0	0	0	0	0	0	0	154776	184262	0
1651665685075	-15.616	2.928	1016.504	0.07	-0.91	0	-352.5	40.5	-1078.5	0	0	0	0	0	0	0	0	0	0	0	0	0	0	0	0	0	0	154709	184212	0
1651665685085	-16.104	-2.928	1014.552	0.14	-1.05	0.14	-352.5	37.5	-1080	0	0	0	0	0	0	0	0	0	0	0	0	0	0	0	0	0	0	154681	184144	0
1651665685095	-19.52	-8.784	1016.992	0.14	-0.98	0.14	-346.5	45	-1078.5	0	0	0	0	0	0	0	0	0	0	0	0	0	0	0	0	0	0	154647	184094	0
1651665685105	-18.544	-5.368	1016.016	0.07	-0.91	0.07	-348	43.5	-1077	0	0	0	0	0	0	0	0	0	0	0	0	0	0	0	0	0	0	154636	184081	0
1651665685115	-12.688	-1.952	1009.672	0.07	-1.12	0	-354	37.5	-1081.5	0	0	0	0	0	0	0	0	0	0	0	0	0	0	0	0	0	0	154630	184114	0
1651665685125	-6.344	-5.368	1012.112	0.14	-1.05	0	-351	40.5	-1083	0	0	0	0	0	0	0	0	0	0	0	0	0	0	0	0	0	0	154667	184132	0
1651665685135	-20.008	1.952	1009.672	0.21	-1.05	0.14	-351	40.5	-1078.5	0	0	0	0	0	0	0	0	0	0	0	0	0	0	0	0	0	0	154688	184187	0
1651665685145	-12.2	0	1013.088	0.07	-0.98	0.07	-357	39	-1080	0	0	0	0	0	0	0	0	0	0	0	0	0	0	0	0	0	0	154714	184242	0
1651665685155	-15.616	2.928	1012.6	-0.07	-1.12	0.07	-354	42	-1080	0	0	0	0	0	0	0	0	0	0	0	0	0	0	0	0	0	0	154764	184295	0
1651665685165	-17.08	9.76	1015.04	0.21	-0.91	0.07	-351	42	-1080	0	0	0	0	0	0	0	0	0	0	0	0	0	0	0	0	0	0	154795	184322	0
1651665685175	-14.64	-5.856	1010.648	-0.07	-0.98	0.14	-354	39	-1080	0	0	0	0	0	0	0	0	0	0	0	0	0	0	0	0	0	0	154803	184347	0
1651665685185	-17.08	-9.272	1015.528	0.14	-1.19	0.14	-358.5	36	-1081.5	0	0	0	0	0	0	0	0	0	0	0	0	0	0	0	0	0	0	154798	184348	0
1651665685195	-9.76	-1.952	1010.16	0.14	-1.05	0.14	-355.5	37.5	-1084.5	0	0	0	0	0	0	0	0	0	0	0	0	0	0	0	0	0	0	154806	184359	0
1651665685205	-14.64	-6.832	1013.088	0.07	-0.98	0.07	-355.5	42	-1081.5	0	0	0	0	0	0	0	0	0	0	0	0	0	0	0	0	0	0	154822	184356	0
1651665685215	-16.104	-3.416	1014.064	0.07	-0.91	0.14	-354	40.5	-1077	0	0	0	0	0	0	0	0	0	0	0	0	0	0	0	0	0	0	154819	184382	0
1651665685225	-11.712	-3.904	1010.648	0	-0.98	0	-349.5	40.5	-1075.5	0	0	0	0	0	0	0	0	0	0	0	0	0	0	0	0	0	0	154842	184402	0
1651665685235	-13.176	-0.488	1013.576	0.07	-0.98	0.07	-349.5	48	-1078.5	0	0	0	0	0	0	0	0	0	0	0	0	0	0	0	0	0	0	154858	184409	0
1651665685245	-18.056	3.416	1016.016	0.14	-0.84	-0.07	-357	48	-1081.5	0	0	0	0	0	0	0	0	0	0	0	0	0	0	0	0	0	0	154854	184397	0
1651665685255	-13.176	-1.464	1017.48	-0.07	-0.98	0.14	-351	43.5	-1084.5	0	0	0	0	0	0	0	0	0	0	0	0	0	0	0	0	0	0	154850	184363	0
1651665685265	-16.104	4.88	1012.6	0.21	-0.84	0	-346.5	43.5	-1086	0	0	0	0	0	0	0	0	0	0	0	0	0	0	0	0	0	0	154839	184342	0
1651665685275	-20.496	-0.488	1013.576	-0.14	-0.98	0.14	-351	45	-1084.5	0	0	0	0	0	0	0	0	0	0	0	0	0	0	0	0	0	0	154833	184342	0
1651665685285	-15.616	-6.832	1012.112	0.21	-0.77	0.14	-351	45	-1081.5	0	0	0	0	0	0	0	0	0	0	0	0	0	0	0	0	0	0	154837	184386	0
1651665685295	-15.616	-4.88	1013.576	-0.07	-0.91	0.07	-352.5	42	-1074	0	0	0	0	0	0	0	0	0	0	0	0	0	0	0	0	0	0	154877	184436	0
1651665685305	-10.248	-2.928	1013.088	0.14	-0.98	0.07	-354	37.5	-1075.5	0	0	0	0	0	0	0	0	0	0	0	0	0	0	0	0	0	0	154933	184507	0
1651665685315	-16.592	-2.44	1014.552	0.07	-0.98	0.14	-352.5	37.5	-1078.5	0	0	0	0	0	0	0	0	0	0	0	0	0	0	0	0	0	0	154977	184587	0
1651665685325	-12.2	-8.296	1010.648	0.07	-0.98	0.07	-355.5	42	-1074	0	0	0	0	0	0	0	0	0	0	0	0	0	0	0	0	0	0	155017	184614	0
1651665685335	-8.784	-0.488	1011.136	0.14	-1.05	0.07	-355.5	46.5	-1072.5	0	0	0	0	0	0	0	0	0	0	0	0	0	0	0	0	0	0	155038	184648	0
1651665685345	-11.712	0	1011.136	0.07	-0.98	0.07	-357	42	-1075.5	0	0	0	0	0	0	0	0	0	0	0	0	0	0	0	0	0	0	155047	184651	0
1651665685355	-17.568	-3.904	1013.088	0	-0.98	0.07	-355.5	39	-1080	0	0	0	0	0	0	0	0	0	0	0	0	0	0	0	0	0	0	155058	184680	0
1651665685365	-12.688	-0.488	1015.528	0.07	-1.05	0.07	-352.5	39	-1084.5	0	0	0	0	0	0	0	0	0	0	0	0	0	0	0	0	0	0	155074	184677	0
1651665685375	-19.52	-8.296	1008.696	0	-0.98	0.07	-352.5	39	-1086	0	0	0	0	0	0	0	0	0	0	0	0	0	0	0	0	0	0	155071	184664	0
1651665685385	-17.08	-6.344	1018.944	0.14	-0.98	0	-351	45	-1080	0	0	0	0	0	0	0	0	0	0	0	0	0	0	0	0	0	0	155061	184640	0
1651665685395	-20.496	-3.416	1012.112	-0.07	-1.05	0.07	-352.5	43.5	-1078.5	0	0	0	0	0	0	0	0	0	0	0	0	0	0	0	0	0	0	155050	184625	0
1651665685405	-20.984	-3.904	1020.896	0.21	-0.84	0.14	-348	42	-1080	0	0	0	0	0	0	0	0	0	0	0	0	0	0	0	0	0	0	155039	184591	0
1651665685415	-15.616	0.976	1007.72	-0.14	-1.12	0.21	-349.5	43.5	-1078.5	0	0	0	0	0	0	0	0	0	0	0	0	0	0	0	0	0	0	155048	184593	0
1651665685425	-15.128	-1.464	1011.136	0.14	-0.91	0.14	-354	42	-1083	0	0	0	0	0	0	0	0	0	0	0	0	0	0	0	0	0	0	155033	184584	0
1651665685435	43.432	10.736	940.864	-0.7	5.74	0.14	-355.5	43.5	-1081.5	0	0	0	0	0	0	0	0	0	0	0	0	0	0	0	0	0	0	155039	184577	0
1651665685445	3.416	-89.792	1047.248	-0.28	-5.95	0.07	-352.5	42	-1074	0	0	0	0	0	0	0	0	0	0	0	0	0	0	0	0	0	0	155023	184581	0
1651665685455	-63.928	-6.832	1045.296	-0.14	-0.84	-0.07	-351	39	-1077	0	0	0	0	0	0	0	0	0	0	0	0	0	0	0	0	0	0	155076	184609	0
1651665685465	-40.016	-20.008	1040.904	0.07	-0.98	0.14	-351	40.5	-1084.5	0	0	0	0	0	0	0	0	0	0	0	0	0	0	0	0	0	0	155088	184638	0
1651665685475	-26.352	-0.976	1022.848	0.14	-0.84	-0.07	-348	37.5	-1087.5	0	0	0	0	0	0	0	0	0	0	0	0	0	0	0	0	0	0	155084	184660	0
1651665685485	-13.176	4.392	1007.232	0.28	-0.98	0.07	-351	39	-1086	0	0	0	0	0	0	0	0	0	0	0	0	0	0	0	0	0	0	155103	184669	0
1651665685495	-1.464	1.464	1009.672	0.07	-1.12	0.07	-352.5	40.5	-1081.5	0	0	0	0	0	0	0	0	0	0	0	0	0	0	0	0	0	0	155077	184652	0
1651665685505	-14.64	4.392	1011.624	0.07	-1.26	0.07	-351	42	-1080	0	0	0	0	0	0	0	0	0	0	0	0	0	0	0	0	0	0	155051	184613	0
1651665685515	-8.296	1.464	1009.184	0.21	-1.05	0.14	-352.5	42	-1080	0	0	0	0	0	0	0	0	0	0	0	0	0	0	0	0	0	0	155003	184568	0
1651665685525	-17.08	-7.808	1005.768	-0.14	-0.77	0.07	-354	40.5	-1080	0	0	0	0	0	0	0	0	0	0	0	0	0	0	0	0	0	0	154970	184534	0
1651665685535	-11.712	-3.416	1014.064	0.35	-1.19	0.07	-355.5	46.5	-1081.5	0	0	0	0	0	0	0	0	0	0	0	0	0	0	0	0	0	0	154965	184523	0
1651665685545	-19.52	-11.224	1007.72	0.07	-0.77	0.07	-352.5	45	-1080	0	0	0	0	0	0	0	0	0	0	0	0	0	0	0	0	0	0	154933	184488	0
1651665685556	-10.248	-8.784	1015.04	0	-1.26	0	-349.5	40.5	-1078.5	0	0	0	0	0	0	0	0	0	0	0	0	0	0	0	0	0	0	154911	184471	0
1651665685566	-16.104	-5.856	1021.872	0.14	-1.05	0.07	-349.5	39	-1086	0	0	0	0	0	0	0	0	0	0	0	0	0	0	0	0	0	0	154902	184469	0
1651665685576	-19.032	3.416	1010.16	0.14	-0.98	0	-357	40.5	-1092	0	0	0	0	0	0	0	0	0	0	0	0	0	0	0	0	0	0	154878	184441	0
1651665685586	-18.056	1.464	1009.672	0.07	-1.05	0.07	-357	45	-1081.5	0	0	0	0	0	0	0	0	0	0	0	0	0	0	0	0	0	0	154868	184435	0
1651665685596	-20.984	1.464	1015.04	0.14	-0.98	0	-351	45	-1077	0	0	0	0	0	0	0	0	0	0	0	0	0	0	0	0	0	0	154851	184415	0
1651665685606	-10.736	1.952	1013.088	0.14	-1.12	0.14	-352.5	40.5	-1087.5	0	0	0	0	0	0	0	0	0	0	0	0	0	0	0	0	0	0	154858	184405	0
1651665685616	-2.928	-1.464	1010.16	0.14	-1.05	0.14	-355.5	45	-1089	0	0	0	0	0	0	0	0	0	0	0	0	0	0	0	0	0	0	154838	184381	0
1651665685626	-9.272	-5.368	1014.552	0.07	-1.05	0.21	-352.5	45	-1081.5	0	0	0	0	0	0	0	0	0	0	0	0	0	0	0	0	0	0	154823	184353	0
1651665685636	-16.592	-11.224	1016.504	0.07	-0.91	0.14	-352.5	37.5	-1081.5	0	0	0	0	0	0	0	0	0	0	0	0	0	0	0	0	0	0	154784	184319	0
1651665685646	-18.544	-11.712	1015.528	0.07	-0.98	0.07	-354	36	-1081.5	0	0	0	0	0	0	0	0	0	0	0	0	0	0	0	0	0	0	154792	184293	0
1651665685656	-9.76	-10.736	1016.016	0.21	-0.98	0	-348	40.5	-1080	0	0	0	0	0	0	0	0	0	0	0	0	0	0	0	0	0	0	154783	184282	0
1651665685666	-20.496	-1.464	1017.968	-0.07	-1.12	0.07	-346.5	39	-1080	0	0	0	0	0	0	0	0	0	0	0	0	0	0	0	0	0	0	154761	184259	0
1651665685676	-17.08	-6.344	1017.968	0.14	-0.84	0.07	-351	43.5	-1081.5	0	0	0	0	0	0	0	0	0	0	0	0	0	0	0	0	0	0	154768	184243	0
1651665685686	-14.152	1.952	1010.648	0	-1.12	0.14	-354	45	-1077	0	0	0	0	0	0	0	0	0	0	0	0	0	0	0	0	0	0	154768	184261	0
1651665685696	-19.52	-0.976	1011.624	0.21	-0.98	0.07	-351	37.5	-1077	0	0	0	0	0	0	0	0	0	0	0	0	0	0	0	0	0	0	154787	184276	0
1651665685706	-10.736	5.856	1012.6	0.14	-1.05	0	-352.5	42	-1078.5	0	0	0	0	0	0	0	0	0	0	0	0	0	0	0	0	0	0	154782	184271	0
1651665685716	-18.544	-2.44	1009.672	0.14	-1.05	0.07	-352.5	46.5	-1080	0	0	0	0	0	0	0	0	0	0	0	0	0	0	0	0	0	0	154777	184274	0
1651665685726	-11.712	-2.928	1015.04	0.07	-0.98	0.14	-351	39	-1081.5	0	0	0	0	0	0	0	0	0	0	0	0	0	0	0	0	0	0	154794	184284	0
1651665685736	-9.272	-7.808	1015.04	0.14	-0.98	0.14	-346.5	36	-1080	0	0	0	0	0	0	0	0	0	0	0	0	0	0	0	0	0	0	154783	184280	0
1651665685746	-15.616	-11.712	1013.576	0.07	-0.98	0.21	-348	40.5	-1081.5	0	0	0	0	0	0	0	0	0	0	0	0	0	0	0	0	0	0	154787	184285	0
1651665685756	-9.76	-4.392	1012.6	0.14	-1.05	0	-348	45	-1080	0	0	0	0	0	0	0	0	0	0	0	0	0	0	0	0	0	0	154777	184284	0
1651665685766	-15.128	0.976	1011.624	0.14	-0.98	-0.07	-349.5	45	-1080	0	0	0	0	0	0	0	0	0	0	0	0	0	0	0	0	0	0	154779	184277	0
1651665685776	-15.128	-6.344	1015.04	0.14	-0.98	0	-357	43.5	-1080	0	0	0	0	0	0	0	0	0	0	0	0	0	0	0	0	0	0	154763	184255	0
1651665685786	-13.664	0	1013.576	-0.07	-1.05	0	-357	42	-1086	0	0	0	0	0	0	0	0	0	0	0	0	0	0	0	0	0	0	154767	184239	0
1651665685796	-14.152	0.976	1013.576	0.14	-0.77	0.07	-348	36	-1084.5	0	0	0	0	0	0	0	0	0	0	0	0	0	0	0	0	0	0	154735	184210	0
1651665685806	-16.104	-4.88	1010.648	0.14	-0.98	0.07	-351	37.5	-1078.5	0	0	0	0	0	0	0	0	0	0	0	0	0	0	0	0	0	0	154720	184170	0
1651665685816	-18.056	2.928	1017.48	0	-1.12	0.14	-354	39	-1081.5	0	0	0	0	0	0	0	0	0	0	0	0	0	0	0	0	0	0	154709	184176	0
1651665685826	-11.224	-0.488	1009.672	0.14	-0.98	0.07	-354	33	-1081.5	0	0	0	0	0	0	0	0	0	0	0	0	0	0	0	0	0	0	154720	184202	0
1651665685836	-11.712	-9.272	1012.112	0.07	-1.05	0.14	-354	36	-1078.5	0	0	0	0	0	0	0	0	0	0	0	0	0	0	0	0	0	0	154721	184216	0
1651665685846	-15.128	-9.272	1009.184	0.07	-1.05	0.07	-354	39	-1083	0	0	0	0	0	0	0	0	0	0	0	0	0	0	0	0	0	0	154716	184221	0
1651665685856	-11.712	-2.44	1011.136	0.07	-0.91	0.07	-355.5	37.5	-1083	0	0	0	0	0	0	0	0	0	0	0	0	0	0	0	0	0	0	154706	184211	0
1651665685866	-7.808	-4.392	1013.088	0.07	-1.05	0	-358.5	39	-1081.5	0	0	0	0	0	0	0	0	0	0	0	0	0	0	0	0	0	0	154696	184208	0
1651665685876	-13.664	1.952	1009.672	0.07	-0.98	0.07	-355.5	40.5	-1078.5	0	0	0	0	0	0	0	0	0	0	0	0	0	0	0	0	0	0	154692	184226	0
1651665685886	-13.176	3.416	1009.184	0	-0.91	0.14	-348	43.5	-1083	0	0	0	0	0	0	0	0	0	0	0	0	0	0	0	0	0	0	154693	184216	0
1651665685896	-14.64	1.952	1012.112	0.07	-0.98	0	-348	40.5	-1084.5	0	0	0	0	0	0	0	0	0	0	0	0	0	0	0	0	0	0	154697	184230	0
1651665685906	-22.936	6.832	1016.016	0.07	-0.84	0.07	-348	39	-1077	0	0	0	0	0	0	0	0	0	0	0	0	0	0	0	0	0	0	154709	184246	0
1651665685916	-11.712	6.832	1017.48	0.14	-0.98	0	-352.5	39	-1077	0	0	0	0	0	0	0	0	0	0	0	0	0	0	0	0	0	0	154710	184219	0
1651665685926	-14.64	-0.976	1010.648	-0.14	-1.12	0.21	-354	40.5	-1075.5	0	0	0	0	0	0	0	0	0	0	0	0	0	0	0	0	0	0	154694	184190	0
1651665685936	-11.224	-4.392	1014.552	0.28	-0.84	0.07	-342	39	-1078.5	0	0	0	0	0	0	0	0	0	0	0	0	0	0	0	0	0	0	154640	184142	0
1651665685946	-15.616	-4.392	1010.648	0	-0.91	0.07	-346.5	39	-1084.5	0	0	0	0	0	0	0	0	0	0	0	0	0	0	0	0	0	0	154615	184096	0
1651665685956	-16.104	0	1019.432	0.07	-1.12	0.07	-354	46.5	-1081.5	0	0	0	0	0	0	0	0	0	0	0	0	0	0	0	0	0	0	154587	184105	0
1651665685966	-12.688	0.976	1012.6	0.21	-1.05	0.07	-349.5	40.5	-1083	0	0	0	0	0	0	0	0	0	0	0	0	0	0	0	0	0	0	154581	184096	0
1651665685976	-8.784	-0.976	1012.6	0.07	-0.98	0	-351	37.5	-1083	0	0	0	0	0	0	0	0	0	0	0	0	0	0	0	0	0	0	154600	184107	0
1651665685986	-14.64	-1.952	1016.504	0.07	-0.98	0.21	-351	37.5	-1083	0	0	0	0	0	0	0	0	0	0	0	0	0	0	0	0	0	0	154582	184131	0
1651665685996	-15.128	3.416	1014.552	0.07	-0.98	0.07	-348	43.5	-1080	0	0	0	0	0	0	0	0	0	0	0	0	0	0	0	0	0	0	154621	184191	0
1651665686006	-14.152	-1.464	1014.064	0.14	-0.98	0.07	-351	43.5	-1081.5	0	0	0	0	0	0	0	0	0	0	0	0	0	0	0	0	0	0	154647	184219	0
1651665686016	-17.08	-8.784	1017.48	0.07	-0.98	0.07	-351	39	-1078.5	0	0	0	0	0	0	0	0	0	0	0	0	0	0	0	0	0	0	154642	184236	0
1651665686026	-21.472	-3.904	1016.992	0.14	-1.05	0.14	-351	43.5	-1074	0	0	0	0	0	0	0	0	0	0	0	0	0	0	0	0	0	0	154642	184235	0
1651665686036	-11.712	-6.832	1013.088	0.07	-0.91	0.07	-355.5	40.5	-1078.5	0	0	0	0	0	0	0	0	0	0	0	0	0	0	0	0	0	0	154648	184241	0
1651665686046	-22.936	-0.976	1014.552	0.07	-1.05	0.07	-352.5	37.5	-1080	0	0	0	0	0	0	0	0	0	0	0	0	0	0	0	0	0	0	154622	184217	0
1651665686056	-16.592	-1.952	1015.528	0.21	-1.05	0.14	-351	40.5	-1084.5	0	0	0	0	0	0	0	0	0	0	0	0	0	0	0	0	0	0	154584	184167	0
1651665686066	-11.712	-5.368	1016.016	-0.07	-1.19	0	-352.5	45	-1089	0	0	0	0	0	0	0	0	0	0	0	0	0	0	0	0	0	0	154552	184125	0
1651665686076	-9.76	3.416	1014.064	0.28	-0.98	0.07	-360	48	-1083	0	0	0	0	0	0	0	0	0	0	0	0	0	0	0	0	0	0	154516	184124	0
1651665686086	-6.832	1.952	1011.136	0	-0.98	0.07	-357	42	-1080	0	0	0	0	0	0	0	0	0	0	0	0	0	0	0	0	0	0	154507	184126	0
1651665686096	-10.248	-0.976	1014.064	0.07	-1.05	0.07	-349.5	37.5	-1080	0	0	0	0	0	0	0	0	0	0	0	0	0	0	0	0	0	0	154511	184148	0
1651665686106	-10.736	-1.464	1011.136	0.14	-1.05	0.14	-352.5	39	-1078.5	0	0	0	0	0	0	0	0	0	0	0	0	0	0	0	0	0	0	154518	184179	0
1651665686116	-15.616	-2.928	1015.528	0.07	-1.05	0.07	-351	37.5	-1075.5	0	0	0	0	0	0	0	0	0	0	0	0	0	0	0	0	0	0	154519	184210	0
1651665686126	-9.272	-4.88	1010.16	0	-0.98	0.07	-345	37.5	-1081.5	0	0	0	0	0	0	0	0	0	0	0	0	0	0	0	0	0	0	154546	184240	0
1651665686136	-8.784	-3.904	1012.112	0.14	-1.05	0	-345	42	-1080	0	0	0	0	0	0	0	0	0	0	0	0	0	0	0	0	0	0	154548	184236	0
1651665686146	-20.008	-6.832	1011.136	0.07	-0.98	0	-351	42	-1083	0	0	0	0	0	0	0	0	0	0	0	0	0	0	0	0	0	0	154535	184223	0
1651665686156	-8.296	-7.808	1010.16	0.14	-1.12	0.07	-351	42	-1083	0	0	0	0	0	0	0	0	0	0	0	0	0	0	0	0	0	0	154529	184225	0
1651665686166	-12.688	-5.856	1011.624	0.14	-0.91	0.14	-349.5	43.5	-1074	0	0	0	0	0	0	0	0	0	0	0	0	0	0	0	0	0	0	154534	184215	0
1651665686176	-11.712	-2.44	1013.576	-0.14	-1.12	0.07	-352.5	43.5	-1078.5	0	0	0	0	0	0	0	0	0	0	0	0	0	0	0	0	0	0	154534	184224	0
1651665686186	-16.592	0.488	1010.16	0.21	-0.84	0	-354	43.5	-1084.5	0	0	0	0	0	0	0	0	0	0	0	0	0	0	0	0	0	0	154529	184210	0
1651665686196	-14.64	1.952	1014.064	-0.14	-0.98	0.07	-345	40.5	-1080	0	0	0	0	0	0	0	0	0	0	0	0	0	0	0	0	0	0	154523	184222	0
1651665686206	-20.496	-5.368	1012.6	0.07	-1.12	0.07	-349.5	43.5	-1080	0	0	0	0	0	0	0	0	0	0	0	0	0	0	0	0	0	0	154509	184169	0
1651665686216	-16.104	0.488	1011.136	0.21	-0.91	0.07	-354	42	-1078.5	0	0	0	0	0	0	0	0	0	0	0	0	0	0	0	0	0	0	154503	184135	0
1651665686226	-15.128	5.368	1008.696	0.07	-1.05	0.14	-354	39	-1075.5	0	0	0	0	0	0	0	0	0	0	0	0	0	0	0	0	0	0	154502	184137	0
1651665686236	-18.544	-2.928	1013.576	0.07	-0.98	0.14	-348	37.5	-1080	0	0	0	0	0	0	0	0	0	0	0	0	0	0	0	0	0	0	154487	184130	0
1651665686246	-16.592	-4.392	1016.992	0	-1.05	0.14	-343.5	34.5	-1081.5	0	0	0	0	0	0	0	0	0	0	0	0	0	0	0	0	0	0	154505	184141	0
1651665686256	-23.912	-6.832	1015.04	0.14	-1.05	0.07	-354	42	-1080	0	0	0	0	0	0	0	0	0	0	0	0	0	0	0	0	0	0	154521	184173	0
1651665686266	-12.2	-2.44	1015.04	0.07	-0.98	0	-357	42	-1083	0	0	0	0	0	0	0	0	0	0	0	0	0	0	0	0	0	0	154558	184192	0
1651665686276	-13.664	-1.464	1014.552	0.07	-0.91	0.14	-352.5	37.5	-1086	0	0	0	0	0	0	0	0	0	0	0	0	0	0	0	0	0	0	154566	184188	0
1651665686286	-8.296	-7.32	1016.504	0.07	-0.98	0	-351	40.5	-1080	0	0	0	0	0	0	0	0	0	0	0	0	0	0	0	0	0	0	154564	184217	0
1651665686296	-18.056	-0.488	1009.672	0.07	-0.91	0.07	-351	42	-1080	0	0	0	0	0	0	0	0	0	0	0	0	0	0	0	0	0	0	154587	184224	0
1651665686306	-15.128	1.952	1010.16	-0.07	-0.98	0.14	-352.5	42	-1089	0	0	0	0	0	0	0	0	0	0	0	0	0	0	0	0	0	0	154587	184230	0
1651665686316	-10.248	-0.976	1009.672	0.14	-0.91	0.21	-352.5	42	-1083	0	0	0	0	0	0	0	0	0	0	0	0	0	0	0	0	0	0	154588	184243	0
1651665686326	-13.664	2.44	1019.432	0.21	-1.19	0	-354	42	-1077	0	0	0	0	0	0	0	0	0	0	0	0	0	0	0	0	0	0	154600	184257	0
1651665686336	-20.008	0.488	1008.696	-0.21	-0.91	0.07	-352.5	40.5	-1081.5	0	0	0	0	0	0	0	0	0	0	0	0	0	0	0	0	0	0	154605	184240	0
1651665686346	-17.568	-20.008	1038.952	0.14	-1.12	0	-352.5	43.5	-1084.5	0	0	0	0	0	0	0	0	0	0	0	0	0	0	0	0	0	0	154590	184218	0
1651665686356	-15.616	-4.392	1028.216	0	-0.56	0.07	-355.5	43.5	-1087.5	0	0	0	0	0	0	0	0	0	0	0	0	0	0	0	0	0	0	154595	184211	0
1651665686366	-24.4	0	1000.888	0.14	-1.75	0	-357	40.5	-1086	0	0	0	0	0	0	0	0	0	0	0	0	0	0	0	0	0	0	154593	184234	0
1651665686376	-22.936	-3.904	1000.888	0.07	-0.63	0.07	-354	40.5	-1084.5	0	0	0	0	0	0	0	0	0	0	0	0	0	0	0	0	0	0	154607	184277	0
1651665686386	-14.64	-1.952	1017.968	0.07	-1.19	0	-354	40.5	-1087.5	0	0	0	0	0	0	0	0	0	0	0	0	0	0	0	0	0	0	154629	184313	0
1651665686397	-17.568	-0.488	1003.328	0.07	-0.84	0	-360	37.5	-1086	0	0	0	0	0	0	0	0	0	0	0	0	0	0	0	0	0	0	154654	184368	0
1651665686407	-9.76	4.392	1016.016	0.07	-1.19	0.07	-355.5	39	-1081.5	0	0	0	0	0	0	0	0	0	0	0	0	0	0	0	0	0	0	154659	184381	0
1651665686417	-13.176	0.976	1007.72	0.14	-0.98	0.07	-354	40.5	-1078.5	0	0	0	0	0	0	0	0	0	0	0	0	0	0	0	0	0	0	154649	184392	0
1651665686427	-11.224	-3.416	1009.184	0.07	-0.98	0.14	-355.5	39	-1077	0	0	0	0	0	0	0	0	0	0	0	0	0	0	0	0	0	0	154642	184372	0
1651665686437	-16.592	-6.832	1011.136	0.07	-0.91	0.07	-351	43.5	-1080	0	0	0	0	0	0	0	0	0	0	0	0	0	0	0	0	0	0	154604	184333	0
1651665686447	-20.008	-1.464	1017.968	0	-1.05	0.07	-352.5	48	-1081.5	0	0	0	0	0	0	0	0	0	0	0	0	0	0	0	0	0	0	154588	184305	0
1651665686457	-15.128	-8.296	1015.04	0.35	-1.05	0	-355.5	45	-1083	0	0	0	0	0	0	0	0	0	0	0	0	0	0	0	0	0	0	154568	184286	0
1651665686467	-11.712	-4.392	1006.744	-0.21	-0.98	0.07	-357	43.5	-1081.5	0	0	0	0	0	0	0	0	0	0	0	0	0	0	0	0	0	0	154565	184274	0
1651665686477	-10.736	-7.32	1015.528	0.14	-0.98	0	-351	43.5	-1080	0	0	0	0	0	0	0	0	0	0	0	0	0	0	0	0	0	0	154554	184275	0
1651665686487	-20.496	-2.928	1019.432	0	-0.91	0.14	-351	46.5	-1087.5	0	0	0	0	0	0	0	0	0	0	0	0	0	0	0	0	0	0	154576	184294	0
1651665686497	-19.032	0.976	1011.136	0.07	-1.19	0.14	-352.5	48	-1084.5	0	0	0	0	0	0	0	0	0	0	0	0	0	0	0	0	0	0	154590	184316	0
1651665686507	-11.224	6.344	1014.552	0.14	-1.12	0.14	-355.5	46.5	-1083	0	0	0	0	0	0	0	0	0	0	0	0	0	0	0	0	0	0	154612	184361	0
1651665686517	-11.712	0.976	1010.16	0.07	-0.98	0.07	-357	48	-1080	0	0	0	0	0	0	0	0	0	0	0	0	0	0	0	0	0	0	154620	184378	0
1651665686527	-13.176	-0.488	1015.528	0.14	-1.05	0.07	-354	48	-1086	0	0	0	0	0	0	0	0	0	0	0	0	0	0	0	0	0	0	154625	184396	0
1651665686537	-14.152	-9.76	1016.504	0.07	-0.91	0.07	-346.5	48	-1084.5	0	0	0	0	0	0	0	0	0	0	0	0	0	0	0	0	0	0	154633	184404	0
1651665686547	-9.272	-9.76	1013.088	0.14	-0.98	0.14	-352.5	43.5	-1083	0	0	0	0	0	0	0	0	0	0	0	0	0	0	0	0	0	0	154625	184383	0
1651665686557	-17.568	-2.44	1008.208	0.07	-0.98	0.07	-358.5	37.5	-1087.5	0	0	0	0	0	0	0	0	0	0	0	0	0	0	0	0	0	0	154592	184346	0
1651665686567	-11.224	-6.344	1014.552	0.14	-0.91	0	-354	39	-1089	0	0	0	0	0	0	0	0	0	0	0	0	0	0	0	0	0	0	154580	184327	0
1651665686577	-5.856	2.928	1015.04	-0.07	-1.19	0.07	-352.5	39	-1081.5	0	0	0	0	0	0	0	0	0	0	0	0	0	0	0	0	0	0	154580	184326	0
1651665686587	-16.592	-3.416	1013.576	0.35	-0.91	0	-352.5	37.5	-1078.5	0	0	0	0	0	0	0	0	0	0	0	0	0	0	0	0	0	0	154551	184271	0
1651665686597	-21.472	2.44	1013.088	0.07	-0.98	0.07	-352.5	42	-1081.5	0	0	0	0	0	0	0	0	0	0	0	0	0	0	0	0	0	0	154539	184262	0
1651665686607	-17.568	2.44	1008.208	0.14	-0.98	0.07	-351	43.5	-1086	0	0	0	0	0	0	0	0	0	0	0	0	0	0	0	0	0	0	154534	184263	0
1651665686617	-19.52	-6.344	1009.672	0.21	-1.05	0.07	-351	40.5	-1089	0	0	0	0	0	0	0	0	0	0	0	0	0	0	0	0	0	0	154525	184240	0
1651665686627	-17.568	2.44	1013.576	0.21	-1.05	0.14	-354	42	-1084.5	0	0	0	0	0	0	0	0	0	0	0	0	0	0	0	0	0	0	154530	184257	0
1651665686637	-10.248	0	1009.672	0.21	-0.98	0.07	-352.5	43.5	-1086	0	0	0	0	0	0	0	0	0	0	0	0	0	0	0	0	0	0	154539	184260	0
1651665686647	-12.688	-9.76	1011.136	0.07	-0.98	0.07	-357	40.5	-1084.5	0	0	0	0	0	0	0	0	0	0	0	0	0	0	0	0	0	0	154546	184260	0
1651665686657	-10.736	-3.416	1010.16	0.07	-0.91	0.14	-354	40.5	-1078.5	0	0	0	0	0	0	0	0	0	0	0	0	0	0	0	0	0	0	154534	184266	0
1651665686667	-7.808	-1.464	1011.624	0.21	-1.05	0	-348	43.5	-1078.5	0	0	0	0	0	0	0	0	0	0	0	0	0	0	0	0	0	0	154555	184289	0
1651665686677	-12.688	-5.856	1011.136	0.07	-1.05	0.07	-349.5	42	-1081.5	0	0	0	0	0	0	0	0	0	0	0	0	0	0	0	0	0	0	154553	184291	0
1651665686687	-16.104	0	1011.136	0	-0.91	0.14	-345	40.5	-1083	0	0	0	0	0	0	0	0	0	0	0	0	0	0	0	0	0	0	154538	184299	0
1651665686697	-17.08	0.488	1010.648	0.14	-0.98	0.07	-346.5	39	-1080	0	0	0	0	0	0	0	0	0	0	0	0	0	0	0	0	0	0	154538	184306	0
1651665686707	-15.128	-1.464	1016.504	0	-1.19	0.07	-349.5	36	-1080	0	0	0	0	0	0	0	0	0	0	0	0	0	0	0	0	0	0	154524	184297	0
1651665686717	-17.568	1.952	1011.136	0.35	-0.77	0.07	-351	37.5	-1086	0	0	0	0	0	0	0	0	0	0	0	0	0	0	0	0	0	0	154517	184300	0
1651665686727	-18.056	-5.368	1011.624	0	-0.91	0	-355.5	40.5	-1087.5	0	0	0	0	0	0	0	0	0	0	0	0	0	0	0	0	0	0	154494	184288	0
1651665686737	-14.152	-5.856	1017.48	0.21	-1.05	0.14	-352.5	40.5	-1083	0	0	0	0	0	0	0	0	0	0	0	0	0	0	0	0	0	0	154489	184263	0
1651665686747	-15.128	-1.952	1012.112	0.07	-0.98	0.21	-351	36	-1077	0	0	0	0	0	0	0	0	0	0	0	0	0	0	0	0	0	0	154453	184231	0
1651665686757	-10.248	-1.464	1013.576	0.14	-0.98	0.14	-352.5	33	-1080	0	0	0	0	0	0	0	0	0	0	0	0	0	0	0	0	0	0	154416	184172	0
1651665686767	-14.152	0.488	1010.648	0.14	-0.98	0.07	-355.5	36	-1081.5	0	0	0	0	0	0	0	0	0	0	0	0	0	0	0	0	0	0	154386	184140	0
1651665686777	-14.152	3.904	1008.696	0.07	-0.91	0.07	-351	37.5	-1081.5	0	0	0	0	0	0	0	0	0	0	0	0	0	0	0	0	0	0	154355	184113	0
1651665686787	-10.248	3.904	1016.504	0.07	-1.05	0.07	-349.5	42	-1084.5	0	0	0	0	0	0	0	0	0	0	0	0	0	0	0	0	0	0	154332	184105	0
1651665686797	-19.032	-1.952	1015.528	0.07	-0.98	0	-349.5	45	-1080	0	0	0	0	0	0	0	0	0	0	0	0	0	0	0	0	0	0	154338	184111	0
1651665686807	-14.152	-4.392	1013.088	0.07	-0.98	0.07	-349.5	45	-1078.5	0	0	0	0	0	0	0	0	0	0	0	0	0	0	0	0	0	0	154346	184120	0
