Timestamp	Acc.X	Acc.Y	Acc.Z	Gyro.X	Gyro.Y	Gyro.Z	Magn.X	Magn.Y	Magn.Z	Distance.x	Distance.y	P.0	P.1	P.2	P.3	P.4	P.5	P.6	P.7	P.8	P.9	P.10	P.11	P.12	P.13	P.14	P.15	PPG_RED.	PPG_IR.	PPG_GREEN.
1651653923106	-792.512	-58.072	524.6	-35.98	8.26	28.14	-106.5	-174	-745.5	0	0	0	0	0	0	0	0	0	0	0	0	0	0	0	0	0	0	0	0	0
1651653923111	-792.024	-129.32	656.36	9.73	1.82	-2.31	879	276	-355.5	0	0	0	0	0	0	0	0	0	0	0	0	0	0	0	0	0	0	0	0	0
1651653923116	-747.616	-287.432	747.128	9.24	7.98	11.2	879	276	-355.5	0	0	0	0	0	0	0	0	0	0	0	0	0	0	0	0	0	0	0	0	0
1651653923121	-722.24	-290.848	799.832	62.51	39.41	21.91	339	36	-435	0	0	0	0	0	0	0	0	0	0	0	0	0	0	0	0	0	0	0	0	0
1651653923126	-774.944	-342.088	886.208	0.7	0.49	6.16	339	36	-435	0	0	0	0	0	0	0	0	0	0	0	0	0	0	0	0	0	0	0	0	0
1651653923131	-678.808	-159.576	827.648	8.82	-1.47	4.55	339	27	-427.5	0	0	0	0	0	0	0	0	0	0	0	0	0	0	0	0	0	0	0	0	0
1651653923136	-630.496	-219.112	786.656	14.7	0.28	6.86	339	27	-427.5	0	0	0	0	0	0	0	0	0	0	0	0	0	0	0	0	0	0	0	0	0
1651653923141	-610.488	-273.768	825.696	26.46	5.53	8.54	345	31.5	-423	0	0	0	0	0	0	0	0	0	0	0	0	0	0	0	0	0	0	0	0	0
1651653923146	-630.984	-260.104	849.608	46.55	16.38	7.56	345	31.5	-423	0	0	0	0	0	0	0	0	0	0	0	0	0	0	0	0	0	0	0	0	0
1651653923151	-656.848	-221.064	821.792	51.45	16.31	4.13	342	33	-421.5	0	0	0	0	0	0	0	0	0	0	0	0	0	0	0	0	0	0	0	0	0
1651653923156	-627.08	-200.08	804.712	45.15	10.08	0.98	342	33	-421.5	0	0	0	0	0	0	0	0	0	0	0	0	0	0	0	0	0	0	0	0	0
1651653923161	-601.216	-200.568	793.488	40.67	6.16	-0.84	343.5	25.5	-418.5	0	0	0	0	0	0	0	0	0	0	0	0	0	0	0	0	0	0	0	0	0
1651653923166	-594.384	-192.272	773.968	37.73	4.48	-0.91	343.5	25.5	-418.5	0	0	0	0	0	0	0	0	0	0	0	0	0	0	0	0	0	0	0	0	0
1651653923171	-592.432	-195.2	763.72	35.63	3.71	0.07	348	22.5	-423	0	0	0	0	0	0	0	0	0	0	0	0	0	0	0	0	0	0	0	0	0
1651653923176	-600.728	-191.784	748.104	34.65	1.96	1.12	348	22.5	-423	0	0	0	0	0	0	0	0	0	0	0	0	0	0	0	0	0	0	0	0	0
1651653923181	-610.488	-189.344	736.392	35.49	0.28	1.89	348	22.5	-423	0	0	0	0	0	0	0	0	0	0	0	0	0	0	0	0	0	0	0	0	0
1651653923186	-614.392	-173.24	719.8	38.92	0.98	3.85	349.5	22.5	-427.5	0	0	0	0	0	0	0	0	0	0	0	0	0	0	0	0	0	0	0	0	0
1651653923191	-619.272	-176.168	724.68	43.19	3.01	6.65	349.5	22.5	-427.5	0	0	0	0	0	0	0	0	0	0	0	0	0	0	0	0	0	0	0	0	0
1651653923196	-626.104	-166.408	746.152	46.62	5.39	9.03	346.5	25.5	-429	0	0	0	0	0	0	0	0	0	0	0	0	0	0	0	0	0	0	0	0	0
1651653923201	-630.496	-181.536	740.296	47.39	5.95	11.06	346.5	25.5	-429	0	0	0	0	0	0	0	0	0	0	0	0	0	0	0	0	0	0	0	0	0
1651653923206	-633.424	-195.688	756.4	47.74	5.74	11.9	343.5	27	-432	0	0	0	0	0	0	0	0	0	0	0	0	0	0	0	0	0	0	0	0	0
1651653923211	-621.712	-203.984	721.264	48.37	3.43	12.04	343.5	27	-432	0	0	0	0	0	0	0	0	0	0	0	0	0	0	0	0	0	0	0	0	0
1651653923216	-620.736	-196.664	706.136	49.91	1.33	12.95	351	21	-427.5	0	0	0	0	0	0	0	0	0	0	0	0	0	0	0	0	0	0	0	0	0
1651653923221	-604.632	-197.152	696.376	52.57	-0.35	14.56	351	21	-427.5	0	0	0	0	0	0	0	0	0	0	0	0	0	0	0	0	0	0	0	0	0
1651653923226	-589.504	-200.08	695.888	55.3	0.77	17.71	351	19.5	-424.5	0	0	0	0	0	0	0	0	0	0	0	0	0	0	0	0	0	0	0	0	0
1651653923231	-601.704	-212.28	691.496	58.8	2.94	21.21	351	19.5	-424.5	0	0	0	0	0	0	0	0	0	0	0	0	0	0	0	0	0	0	0	0	0
1651653923236	-609.024	-206.424	709.552	61.74	2.59	23.94	351	19.5	-429	0	0	0	0	0	0	0	0	0	0	0	0	0	0	0	0	0	0	0	0	0
1651653923241	-605.608	-202.032	708.088	63.42	2.31	26.46	351	19.5	-429	0	0	0	0	0	0	0	0	0	0	0	0	0	0	0	0	0	0	0	0	0
1651653923243	-599.752	-186.904	726.144	65.31	2.17	29.54	349.5	13.5	-427.5	0	0	0	0	0	0	0	0	0	0	0	0	0	0	0	0	0	0	0	0	0
1651653923248	-607.56	-169.824	739.808	66.01	3.78	33.32	349.5	13.5	-427.5	0	0	0	0	0	0	0	0	0	0	0	0	0	0	0	0	0	0	0	0	0
1651653923253	-620.248	-163.48	759.328	65.45	6.16	36.96	351	10.5	-429	0	0	0	0	0	0	0	0	0	0	0	0	0	0	0	0	0	0	0	0	0
1651653923258	-629.52	-141.52	764.208	65.03	8.96	40.18	351	10.5	-429	0	0	0	0	0	0	0	0	0	0	0	0	0	0	0	0	0	0	0	0	0
1651653923263	-650.016	-122.976	764.208	65.17	11.48	42.98	355.5	9	-427.5	0	0	0	0	0	0	0	0	0	0	0	0	0	0	0	0	0	0	0	0	0
1651653923268	-667.584	-93.208	765.672	66.29	13.93	45.29	355.5	9	-427.5	0	0	0	0	0	0	0	0	0	0	0	0	0	0	0	0	0	0	0	0	0
1651653923273	-685.64	-69.784	769.088	67.41	16.31	46.97	354	0	-433.5	0	0	0	0	0	0	0	0	0	0	0	0	0	0	0	0	0	0	0	0	0
1651653923278	-697.352	-42.944	769.088	67.41	18.2	47.25	354	0	-433.5	0	0	0	0	0	0	0	0	0	0	0	0	0	0	0	0	0	0	0	0	0
1651653923283	-705.648	-25.376	768.112	66.85	18.9	46.41	351	-4.5	-436.5	0	0	0	0	0	0	0	0	0	0	0	0	0	0	0	0	0	0	0	0	0
1651653923288	-711.016	-2.928	762.256	65.38	18.83	44.94	351	-4.5	-436.5	0	0	0	0	0	0	0	0	0	0	0	0	0	0	0	0	0	0	0	0	0
1651653923293	-711.504	10.248	754.448	64.12	18.55	43.19	352.5	-9	-439.5	0	0	0	0	0	0	0	0	0	0	0	0	0	0	0	0	0	0	0	0	0
1651653923298	-715.408	34.16	747.616	63.28	18.48	41.23	352.5	-9	-439.5	0	0	0	0	0	0	0	0	0	0	0	0	0	0	0	0	0	0	0	0	0
1651653923303	-733.952	53.68	753.472	62.09	18.48	39.2	351	-9	-432	0	0	0	0	0	0	0	0	0	0	0	0	0	0	0	0	0	0	0	0	0
1651653923308	-748.592	71.248	771.04	58.8	17.99	36.05	351	-9	-432	0	0	0	0	0	0	0	0	0	0	0	0	0	0	0	0	0	0	0	0	0
1651653923313	-760.792	75.152	790.56	54.39	16.03	31.78	349.5	-16.5	-432	0	0	0	0	0	0	0	0	0	0	0	0	0	0	0	0	0	0	0	0	0
1651653923318	-777.872	83.448	811.056	49.21	13.23	26.95	349.5	-16.5	-432	0	0	0	0	0	0	0	0	0	0	0	0	0	0	0	0	0	0	0	0	0
1651653923323	-776.408	95.648	827.16	43.96	11.9	22.61	352.5	-18	-438	0	0	0	0	0	0	0	0	0	0	0	0	0	0	0	0	0	0	0	0	0
1651653923328	-769.576	104.432	821.792	39.62	12.25	19.6	352.5	-18	-438	0	0	0	0	0	0	0	0	0	0	0	0	0	0	0	0	0	0	0	0	0
1651653923333	-752.496	107.848	812.032	35.98	14.28	18.27	355.5	-25.5	-436.5	0	0	0	0	0	0	0	0	0	0	0	0	0	0	0	0	0	0	0	0	0
1651653923338	-743.224	101.992	796.904	32.83	17.22	17.29	355.5	-25.5	-436.5	0	0	0	0	0	0	0	0	0	0	0	0	0	0	0	0	0	0	0	0	0
1651653923343	-732.976	89.304	785.68	30.17	17.85	15.82	355.5	-25.5	-429	0	0	0	0	0	0	0	0	0	0	0	0	0	0	0	0	0	0	0	0	0
1651653923348	-729.56	80.52	773.48	27.02	16.45	13.58	355.5	-25.5	-429	0	0	0	0	0	0	0	0	0	0	0	0	0	0	0	0	0	0	0	0	0
1651653923353	-723.216	76.128	760.304	23.45	14.28	10.92	357	-18	-424.5	0	0	0	0	0	0	0	0	0	0	0	0	0	0	0	0	0	0	0	0	0
1651653923358	-716.872	76.128	749.568	20.86	12.32	8.54	357	-18	-424.5	0	0	0	0	0	0	0	0	0	0	0	0	0	0	0	0	0	0	0	0	0
1651653923363	-706.136	69.784	732.488	19.67	11.2	6.79	361.5	-22.5	-426	0	0	0	0	0	0	0	0	0	0	0	0	0	0	0	0	0	0	0	0	0
1651653923368	-703.208	69.296	730.536	20.23	10.92	5.67	361.5	-22.5	-426	0	0	0	0	0	0	0	0	0	0	0	0	0	0	0	0	0	0	0	0	0
1651653923373	-702.232	63.928	724.68	23.38	12.46	5.39	360	-22.5	-426	0	0	0	0	0	0	0	0	0	0	0	0	0	0	0	0	0	0	0	0	0
1651653923378	-691.496	53.68	720.288	26.67	14.49	5.81	360	-22.5	-426	0	0	0	0	0	0	0	0	0	0	0	0	0	0	0	0	0	0	0	0	0
1651653923380	-687.592	45.872	720.288	30.38	16.8	6.3	360	-22.5	-426	0	0	0	0	0	0	0	0	0	0	0	0	0	0	0	0	0	0	0	0	0
1651653923385	-680.76	25.376	719.8	33.46	19.25	7.14	358.5	-27	-427.5	0	0	0	0	0	0	0	0	0	0	0	0	0	0	0	0	0	0	0	0	0
1651653923390	-657.336	-1.952	728.584	36.05	21.07	8.26	358.5	-27	-427.5	0	0	0	0	0	0	0	0	0	0	0	0	0	0	0	0	0	0	0	0	0
1651653923395	-642.696	-24.4	731.024	37.73	23.1	9.8	361.5	-31.5	-429	0	0	0	0	0	0	0	0	0	0	0	0	0	0	0	0	0	0	0	0	0
1651653923400	-637.328	-43.432	739.32	39.55	25.41	11.9	361.5	-31.5	-429	0	0	0	0	0	0	0	0	0	0	0	0	0	0	0	0	0	0	0	0	0
1651653923405	-635.864	-55.144	760.304	40.53	26.53	14.21	357	-31.5	-421.5	0	0	0	0	0	0	0	0	0	0	0	0	0	0	0	0	0	0	0	0	0
1651653923410	-648.064	-53.192	772.504	39.83	27.09	16.17	357	-31.5	-421.5	0	0	0	0	0	0	0	0	0	0	0	0	0	0	0	0	0	0	0	0	0
1651653923415	-650.016	-45.384	771.528	39.13	27.79	17.99	355.5	-31.5	-420	0	0	0	0	0	0	0	0	0	0	0	0	0	0	0	0	0	0	0	0	0
1651653923420	-659.776	-34.16	766.16	39.76	28.77	20.16	355.5	-31.5	-420	0	0	0	0	0	0	0	0	0	0	0	0	0	0	0	0	0	0	0	0	0
1651653923425	-671.976	-21.96	760.304	41.51	31.29	22.68	360	-31.5	-414	0	0	0	0	0	0	0	0	0	0	0	0	0	0	0	0	0	0	0	0	0
1651653923430	-683.2	-11.224	770.064	42.98	34.86	24.92	360	-31.5	-414	0	0	0	0	0	0	0	0	0	0	0	0	0	0	0	0	0	0	0	0	0
1651653923435	-700.768	10.248	776.408	43.61	37.31	26.67	367.5	-37.5	-415.5	0	0	0	0	0	0	0	0	0	0	0	0	0	0	0	0	0	0	0	0	0
1651653923440	-718.336	27.816	777.872	42.35	38.92	27.23	367.5	-37.5	-415.5	0	0	0	0	0	0	0	0	0	0	0	0	0	0	0	0	0	0	0	0	0
1651653923445	-730.536	51.24	766.16	40.88	40.25	26.74	370.5	-39	-415.5	0	0	0	0	0	0	0	0	0	0	0	0	0	0	0	0	0	0	0	0	0
1651653923450	-738.832	82.96	754.936	39.83	41.93	26.11	370.5	-39	-415.5	0	0	0	0	0	0	0	0	0	0	0	0	0	0	0	0	0	0	0	0	0
1651653923455	-749.08	108.824	733.464	40.04	44.94	26.18	366	-40.5	-409.5	0	0	0	0	0	0	0	0	0	0	0	0	0	0	0	0	0	0	0	0	0
1651653923460	-752.496	130.296	718.336	43.54	49	26.18	366	-40.5	-409.5	0	0	0	0	0	0	0	0	0	0	0	0	0	0	0	0	0	0	0	0	0
1651653923465	-746.152	136.64	717.36	47.95	54.32	26.74	366	-48	-406.5	0	0	0	0	0	0	0	0	0	0	0	0	0	0	0	0	0	0	0	0	0
1651653923470	-735.904	130.784	722.24	52.22	60.48	27.65	366	-48	-406.5	0	0	0	0	0	0	0	0	0	0	0	0	0	0	0	0	0	0	0	0	0
1651653923475	-738.832	123.464	712.968	54.39	66.08	28.21	364.5	-58.5	-405	0	0	0	0	0	0	0	0	0	0	0	0	0	0	0	0	0	0	0	0	0
1651653923480	-745.664	110.776	699.792	55.09	69.3	27.58	364.5	-58.5	-405	0	0	0	0	0	0	0	0	0	0	0	0	0	0	0	0	0	0	0	0	0
1651653923485	-746.152	97.6	686.616	55.86	69.44	26.53	364.5	-54	-403.5	0	0	0	0	0	0	0	0	0	0	0	0	0	0	0	0	0	0	0	0	0
1651653923490	-756.888	102.968	692.472	55.93	67.69	24.08	364.5	-54	-403.5	0	0	0	0	0	0	0	0	0	0	0	0	0	0	0	0	0	0	0	0	0
1651653923495	-776.408	132.248	701.744	52.57	63.49	20.79	370.5	-52.5	-400.5	0	0	0	0	0	0	0	0	0	0	0	0	0	0	0	0	0	0	0	0	0
1651653923500	-790.56	138.592	679.784	47.11	57.47	15.61	370.5	-52.5	-400.5	0	0	0	0	0	0	0	0	0	0	0	0	0	0	0	0	0	0	0	0	0
1651653923505	-786.656	162.016	679.296	42.7	50.96	10.22	367.5	-57	-393	0	0	0	0	0	0	0	0	0	0	0	0	0	0	0	0	0	0	0	0	0
1651653923510	-788.608	149.816	671.976	38.5	45.15	5.95	367.5	-57	-393	0	0	0	0	0	0	0	0	0	0	0	0	0	0	0	0	0	0	0	0	0
1651653923515	-789.096	148.352	681.736	35.91	40.74	2.31	370.5	-60	-390	0	0	0	0	0	0	0	0	0	0	0	0	0	0	0	0	0	0	0	0	0
1651653923517	-764.208	158.6	683.688	32.62	37.59	0.35	370.5	-60	-390	0	0	0	0	0	0	0	0	0	0	0	0	0	0	0	0	0	0	0	0	0
1651653923522	-762.256	156.648	690.032	31.08	36.82	0.63	370.5	-58.5	-390	0	0	0	0	0	0	0	0	0	0	0	0	0	0	0	0	0	0	0	0	0
1651653923527	-792.024	170.312	711.992	30.66	38.85	1.05	370.5	-58.5	-390	0	0	0	0	0	0	0	0	0	0	0	0	0	0	0	0	0	0	0	0	0
1651653923532	-794.464	171.776	726.144	31.29	43.12	2.87	363	-60	-384	0	0	0	0	0	0	0	0	0	0	0	0	0	0	0	0	0	0	0	0	0
1651653923537	-776.408	163.968	732.976	30.66	52.01	5.53	363	-60	-384	0	0	0	0	0	0	0	0	0	0	0	0	0	0	0	0	0	0	0	0	0
1651653923542	-793	169.824	741.76	28.7	56.07	6.65	367.5	-60	-382.5	0	0	0	0	0	0	0	0	0	0	0	0	0	0	0	0	0	0	0	0	0
1651653923547	-791.048	155.184	737.368	26.11	58.66	5.6	367.5	-60	-382.5	0	0	0	0	0	0	0	0	0	0	0	0	0	0	0	0	0	0	0	0	0
1651653923552	-803.248	177.632	721.752	24.01	60.48	6.44	372	-58.5	-379.5	0	0	0	0	0	0	0	0	0	0	0	0	0	0	0	0	0	0	0	0	0
1651653923557	-805.688	172.264	683.2	21.42	60.13	4.76	372	-58.5	-379.5	0	0	0	0	0	0	0	0	0	0	0	0	0	0	0	0	0	0	0	0	0
1651653923562	-747.128	146.888	669.048	21.77	59.29	5.39	372	-61.5	-372	0	0	0	0	0	0	0	0	0	0	0	0	0	0	0	0	0	0	0	0	0
1651653923567	-764.696	152.744	657.824	22.19	59.85	6.51	372	-61.5	-372	0	0	0	0	0	0	0	0	0	0	0	0	0	0	0	0	0	0	0	0	0
1651653923572	-711.992	110.288	635.376	22.47	59.5	7.42	376.5	-61.5	-369	0	0	0	0	0	0	0	0	0	0	0	0	0	0	0	0	0	0	0	0	0
1651653923577	-722.24	130.296	632.448	23.8	60.48	10.15	376.5	-61.5	-369	0	0	0	0	0	0	0	0	0	0	0	0	0	0	0	0	0	0	0	0	0
1651653923582	-696.864	68.808	643.184	22.47	57.47	9.73	376.5	-61.5	-369	0	0	0	0	0	0	0	0	0	0	0	0	0	0	0	0	0	0	0	0	0
1651653923587	-722.24	80.032	668.072	24.22	55.09	11.55	376.5	-66	-372	0	0	0	0	0	0	0	0	0	0	0	0	0	0	0	0	0	0	0	0	0
1651653923592	-706.136	44.896	670.024	20.72	49.28	10.08	376.5	-66	-372	0	0	0	0	0	0	0	0	0	0	0	0	0	0	0	0	0	0	0	0	0
1651653923597	-712.48	46.36	682.712	21.56	46.83	12.32	372	-70.5	-366	0	0	0	0	0	0	0	0	0	0	0	0	0	0	0	0	0	0	0	0	0
1651653923602	-665.632	20.496	679.296	19.46	44.59	13.79	372	-70.5	-366	0	0	0	0	0	0	0	0	0	0	0	0	0	0	0	0	0	0	0	0	0
1651653923607	-645.136	38.552	685.152	21.28	45.22	17.64	376.5	-66	-357	0	0	0	0	0	0	0	0	0	0	0	0	0	0	0	0	0	0	0	0	0
1651653923612	-633.912	30.744	689.544	21.35	45.78	23.1	376.5	-66	-357	0	0	0	0	0	0	0	0	0	0	0	0	0	0	0	0	0	0	0	0	0
1651653923617	-629.032	27.328	691.496	21	45.08	26.6	378	-66	-354	0	0	0	0	0	0	0	0	0	0	0	0	0	0	0	0	0	0	0	0	0
1651653923622	-635.376	50.752	701.744	21.14	44.38	30.73	378	-66	-354	0	0	0	0	0	0	0	0	0	0	0	0	0	0	0	0	0	0	0	0	0
1651653923627	-679.784	84.912	693.448	19.18	42.98	33.32	370.5	-72	-352.5	0	0	0	0	0	0	0	0	0	0	0	0	0	0	0	0	0	0	0	0	0
1651653923632	-630.008	59.536	699.304	17.36	39.97	34.09	370.5	-72	-352.5	0	0	0	0	0	0	0	0	0	0	0	0	0	0	0	0	0	0	0	0	0
1651653923637	-679.784	124.44	707.6	17.85	40.53	37.8	373.5	-73.5	-351	0	0	0	0	0	0	0	0	0	0	0	0	0	0	0	0	0	0	0	0	0
1651653923642	-664.656	125.904	704.184	17.08	42.84	41.02	373.5	-73.5	-351	0	0	0	0	0	0	0	0	0	0	0	0	0	0	0	0	0	0	0	0	0
1651653923647	-648.552	133.712	709.064	19.95	46.48	45.15	376.5	-75	-346.5	0	0	0	0	0	0	0	0	0	0	0	0	0	0	0	0	0	0	0	0	0
1651653923652	-689.056	155.672	691.496	22.05	48.09	46.27	376.5	-75	-346.5	0	0	0	0	0	0	0	0	0	0	0	0	0	0	0	0	0	0	0	0	0
1651653923653	-680.272	165.92	698.816	26.25	50.96	50.19	382.5	-84	-336	0	0	0	0	0	0	0	0	0	0	0	0	0	0	0	0	0	0	0	0	0
1651653923658	-711.504	192.76	705.16	24.22	52.29	50.26	382.5	-84	-336	0	0	0	0	0	0	0	0	0	0	0	0	0	0	0	0	0	0	0	0	0
1651653923663	-736.88	210.816	676.856	23.03	49.21	47.39	387	-85.5	-334.5	0	0	0	0	0	0	0	0	0	0	0	0	0	0	0	0	0	0	0	0	0
1651653923668	-714.432	224.48	658.8	22.12	45.15	45.78	387	-85.5	-334.5	0	0	0	0	0	0	0	0	0	0	0	0	0	0	0	0	0	0	0	0	0
1651653923673	-750.544	254.736	646.6	17.43	39.83	41.58	384	-84	-336	0	0	0	0	0	0	0	0	0	0	0	0	0	0	0	0	0	0	0	0	0
1651653923678	-735.904	242.048	621.224	14.42	33.53	37.31	384	-84	-336	0	0	0	0	0	0	0	0	0	0	0	0	0	0	0	0	0	0	0	0	0
1651653923683	-741.76	247.416	615.368	13.16	28.14	34.58	381	-90	-333	0	0	0	0	0	0	0	0	0	0	0	0	0	0	0	0	0	0	0	0	0
1651653923688	-745.664	246.928	622.2	11.83	23.17	30.52	381	-90	-333	0	0	0	0	0	0	0	0	0	0	0	0	0	0	0	0	0	0	0	0	0
1651653923693	-772.016	244.488	657.824	13.09	21.28	29.05	378	-91.5	-333	0	0	0	0	0	0	0	0	0	0	0	0	0	0	0	0	0	0	0	0	0
1651653923698	-779.824	225.456	703.208	12.88	21.7	28.35	378	-91.5	-333	0	0	0	0	0	0	0	0	0	0	0	0	0	0	0	0	0	0	0	0	0
1651653923703	-840.336	231.8	765.184	11.48	26.74	28.49	378	-94.5	-333	0	0	0	0	0	0	0	0	0	0	0	0	0	0	0	0	0	0	0	0	0
1651653923708	-864.248	225.944	779.336	8.47	27.79	26.18	378	-94.5	-333	0	0	0	0	0	0	0	0	0	0	0	0	0	0	0	0	0	0	0	0	0
1651653923713	-867.664	218.136	780.8	4.55	26.67	22.96	378	-103.5	-334.5	0	0	0	0	0	0	0	0	0	0	0	0	0	0	0	0	0	0	0	0	0
1651653923718	-856.44	206.912	762.744	0.07	24.64	20.02	378	-103.5	-334.5	0	0	0	0	0	0	0	0	0	0	0	0	0	0	0	0	0	0	0	0	0
1651653923723	-839.848	207.4	734.44	-3.78	23.66	17.99	381	-108	-333	0	0	0	0	0	0	0	0	0	0	0	0	0	0	0	0	0	0	0	0	0
1651653923728	-830.088	206.424	697.352	-7.98	23.1	16.87	381	-108	-333	0	0	0	0	0	0	0	0	0	0	0	0	0	0	0	0	0	0	0	0	0
1651653923733	-816.912	206.912	650.992	-11.76	21.07	15.47	381	-109.5	-325.5	0	0	0	0	0	0	0	0	0	0	0	0	0	0	0	0	0	0	0	0	0
1651653923738	-800.808	205.448	603.656	-14.35	17.85	14.07	381	-109.5	-325.5	0	0	0	0	0	0	0	0	0	0	0	0	0	0	0	0	0	0	0	0	0
1651653923743	-784.216	208.376	571.936	-14.84	14.84	12.88	381	-112.5	-322.5	0	0	0	0	0	0	0	0	0	0	0	0	0	0	0	0	0	0	0	0	0
1651653923748	-760.792	201.544	556.808	-13.86	12.67	14.35	381	-112.5	-322.5	0	0	0	0	0	0	0	0	0	0	0	0	0	0	0	0	0	0	0	0	0
1651653923753	-761.28	191.296	549.488	-11.76	12.39	16.8	381	-115.5	-324	0	0	0	0	0	0	0	0	0	0	0	0	0	0	0	0	0	0	0	0	0
1651653923758	-767.624	189.344	555.344	-9.52	13.51	19.95	381	-115.5	-324	0	0	0	0	0	0	0	0	0	0	0	0	0	0	0	0	0	0	0	0	0
1651653923763	-826.672	219.112	555.832	-8.05	14.28	21.42	381	-118.5	-325.5	0	0	0	0	0	0	0	0	0	0	0	0	0	0	0	0	0	0	0	0	0
1651653923768	-758.352	154.696	560.712	-8.82	12.11	22.05	381	-118.5	-325.5	0	0	0	0	0	0	0	0	0	0	0	0	0	0	0	0	0	0	0	0	0
1651653923773	-800.808	240.096	565.592	-7.35	14.28	24.57	378	-118.5	-328.5	0	0	0	0	0	0	0	0	0	0	0	0	0	0	0	0	0	0	0	0	0
1651653923778	-793	205.448	519.72	-10.78	14.14	24.43	378	-118.5	-328.5	0	0	0	0	0	0	0	0	0	0	0	0	0	0	0	0	0	0	0	0	0
1651653923783	-796.416	242.536	501.664	-10.01	11.2	23.45	378	-118.5	-328.5	0	0	0	0	0	0	0	0	0	0	0	0	0	0	0	0	0	0	0	0	0
1651653923788	-778.848	255.224	475.8	-12.11	8.4	22.05	376.5	-123	-328.5	0	0	0	0	0	0	0	0	0	0	0	0	0	0	0	0	0	0	0	0	0
1651653923790	-755.424	250.344	454.328	-13.58	6.65	22.4	376.5	-123	-328.5	0	0	0	0	0	0	0	0	0	0	0	0	0	0	0	0	0	0	0	0	0
1651653923795	-743.224	247.904	431.392	-13.02	5.81	22.89	378	-127.5	-327	0	0	0	0	0	0	0	0	0	0	0	0	0	0	0	0	0	0	0	0	0
1651653923800	-735.416	256.688	402.6	-12.32	4.76	22.54	378	-127.5	-327	0	0	0	0	0	0	0	0	0	0	0	0	0	0	0	0	0	0	0	0	0
1651653923805	-728.096	263.52	386.008	-12.04	2.31	22.26	378	-129	-330	0	0	0	0	0	0	0	0	0	0	0	0	0	0	0	0	0	0	0	0	0
1651653923810	-715.408	267.424	368.928	-10.92	-1.47	21.98	378	-129	-330	0	0	0	0	0	0	0	0	0	0	0	0	0	0	0	0	0	0	0	0	0
1651653923815	-702.232	253.272	372.344	-9.52	-4.9	22.19	378	-129	-330	0	0	0	0	0	0	0	0	0	0	0	0	0	0	0	0	0	0	0	0	0
1651653923820	-683.2	237.168	385.032	-6.58	-6.51	23.66	378	-129	-330	0	0	0	0	0	0	0	0	0	0	0	0	0	0	0	0	0	0	0	0	0
1651653923825	-678.808	242.536	419.68	-4.27	-6.02	26.67	375	-127.5	-325.5	0	0	0	0	0	0	0	0	0	0	0	0	0	0	0	0	0	0	0	0	0
1651653923830	-781.288	300.608	435.784	-2.38	-5.32	28.84	375	-127.5	-325.5	0	0	0	0	0	0	0	0	0	0	0	0	0	0	0	0	0	0	0	0	0
1651653923835	-639.28	195.688	442.128	-3.78	-7.49	30.24	373.5	-135	-325.5	0	0	0	0	0	0	0	0	0	0	0	0	0	0	0	0	0	0	0	0	0
1651653923840	-721.264	295.728	457.256	2.66	-0.49	35.77	373.5	-135	-325.5	0	0	0	0	0	0	0	0	0	0	0	0	0	0	0	0	0	0	0	0	0
1651653923845	-716.384	262.056	429.44	1.89	3.01	38.43	375	-141	-333	0	0	0	0	0	0	0	0	0	0	0	0	0	0	0	0	0	0	0	0	0
1651653923850	-752.008	302.56	416.752	6.02	2.1	39.27	375	-141	-333	0	0	0	0	0	0	0	0	0	0	0	0	0	0	0	0	0	0	0	0	0
1651653923855	-772.992	334.28	412.848	6.02	-1.26	37.52	378	-141	-333	0	0	0	0	0	0	0	0	0	0	0	0	0	0	0	0	0	0	0	0	0
1651653923860	-782.752	342.088	411.384	6.23	-3.99	35.42	378	-141	-333	0	0	0	0	0	0	0	0	0	0	0	0	0	0	0	0	0	0	0	0	0
1651653923865	-772.504	358.192	393.816	5.81	-8.75	28.63	381	-144	-330	0	0	0	0	0	0	0	0	0	0	0	0	0	0	0	0	0	0	0	0	0
1651653923870	-786.656	356.728	427.976	10.08	-8.75	29.26	381	-144	-330	0	0	0	0	0	0	0	0	0	0	0	0	0	0	0	0	0	0	0	0	0
1651653923875	-771.04	305	451.4	6.09	-9.73	26.95	379.5	-151.5	-334.5	0	0	0	0	0	0	0	0	0	0	0	0	0	0	0	0	0	0	0	0	0
1651653923880	-775.92	292.8	461.16	5.25	-12.88	24.01	379.5	-151.5	-334.5	0	0	0	0	0	0	0	0	0	0	0	0	0	0	0	0	0	0	0	0	0
1651653923885	-763.72	278.648	480.192	1.68	-17.15	21	373.5	-153	-336	0	0	0	0	0	0	0	0	0	0	0	0	0	0	0	0	0	0	0	0	0
1651653923890	-757.376	252.296	512.888	-0.84	-18.76	19.95	373.5	-153	-336	0	0	0	0	0	0	0	0	0	0	0	0	0	0	0	0	0	0	0	0	0
1651653923895	-794.952	261.568	540.216	-0.56	-16.66	19.67	375	-154.5	-339	0	0	0	0	0	0	0	0	0	0	0	0	0	0	0	0	0	0	0	0	0
1651653923900	-734.928	170.312	565.104	-3.29	-15.82	18.48	375	-154.5	-339	0	0	0	0	0	0	0	0	0	0	0	0	0	0	0	0	0	0	0	0	0
1651653923905	-774.944	214.232	579.744	2.17	-8.82	25.2	375	-159	-342	0	0	0	0	0	0	0	0	0	0	0	0	0	0	0	0	0	0	0	0	0
1651653923910	-755.912	182.512	587.552	0.91	-0.14	30.45	375	-159	-342	0	0	0	0	0	0	0	0	0	0	0	0	0	0	0	0	0	0	0	0	0
1651653923915	-766.16	186.416	580.232	1.68	6.02	35.77	369	-160.5	-342	0	0	0	0	0	0	0	0	0	0	0	0	0	0	0	0	0	0	0	0	0
1651653923920	-762.256	200.08	549.976	0.14	8.12	39.41	369	-160.5	-342	0	0	0	0	0	0	0	0	0	0	0	0	0	0	0	0	0	0	0	0	0
1651653923925	-803.248	226.92	527.528	3.78	9.03	42.98	366	-165	-346.5	0	0	0	0	0	0	0	0	0	0	0	0	0	0	0	0	0	0	0	0	0
1651653923927	-725.168	267.912	419.192	3.36	1.75	38.64	366	-165	-346.5	0	0	0	0	0	0	0	0	0	0	0	0	0	0	0	0	0	0	0	0	0
1651653923932	-693.936	263.032	354.776	12.25	1.4	49.07	369	-172.5	-342	0	0	0	0	0	0	0	0	0	0	0	0	0	0	0	0	0	0	0	0	0
1651653923937	-585.6	224.968	365.024	22.47	14.77	66.78	369	-172.5	-342	0	0	0	0	0	0	0	0	0	0	0	0	0	0	0	0	0	0	0	0	0
1651653923942	-565.104	146.888	371.368	37.1	33.88	82.74	372	-175.5	-342	0	0	0	0	0	0	0	0	0	0	0	0	0	0	0	0	0	0	0	0	0
1651653923947	-764.208	305.488	386.984	48.51	40.81	83.16	372	-175.5	-342	0	0	0	0	0	0	0	0	0	0	0	0	0	0	0	0	0	0	0	0	0
1651653923952	-830.576	298.656	337.208	46.06	25.41	83.58	369	-180	-339	0	0	0	0	0	0	0	0	0	0	0	0	0	0	0	0	0	0	0	0	0
1651653923957	-796.416	287.432	376.248	48.16	12.11	87.85	369	-180	-339	0	0	0	0	0	0	0	0	0	0	0	0	0	0	0	0	0	0	0	0	0
1651653923962	-796.904	331.352	428.464	51.03	11.76	86.73	369	-190.5	-339	0	0	0	0	0	0	0	0	0	0	0	0	0	0	0	0	0	0	0	0	0
1651653923967	-874.008	397.232	447.496	47.81	12.25	80.99	369	-190.5	-339	0	0	0	0	0	0	0	0	0	0	0	0	0	0	0	0	0	0	0	0	0
1651653923972	-925.736	432.368	460.672	41.65	10.01	77.07	364.5	-204	-342	0	0	0	0	0	0	0	0	0	0	0	0	0	0	0	0	0	0	0	0	0
1651653923977	-941.84	450.912	455.304	36.33	7.35	72.73	364.5	-204	-342	0	0	0	0	0	0	0	0	0	0	0	0	0	0	0	0	0	0	0	0	0
1651653923982	-964.776	489.464	444.08	30.87	3.15	63.49	364.5	-204	-342	0	0	0	0	0	0	0	0	0	0	0	0	0	0	0	0	0	0	0	0	0
1651653923987	-961.848	508.984	431.88	23.66	-2.8	53.55	360	-205.5	-339	0	0	0	0	0	0	0	0	0	0	0	0	0	0	0	0	0	0	0	0	0
1651653923992	-931.104	500.2	422.608	18.2	-5.74	47.32	360	-205.5	-339	0	0	0	0	0	0	0	0	0	0	0	0	0	0	0	0	0	0	0	0	0
1651653923997	-914.024	502.64	414.8	15.75	-4.69	43.47	352.5	-204	-334.5	0	0	0	0	0	0	0	0	0	0	0	0	0	0	0	0	0	0	0	0	0
1651653924002	-927.2	516.792	402.112	14.42	-4.34	39.06	352.5	-204	-334.5	0	0	0	0	0	0	0	0	0	0	0	0	0	0	0	0	0	0	0	0	0
1651653924007	-915.488	535.336	377.224	14.63	-5.32	34.86	355.5	-217.5	-331.5	0	0	0	0	0	0	0	0	0	0	0	0	0	0	0	0	0	0	0	0	0
1651653924012	-900.848	553.88	362.584	16.38	-3.15	33.67	355.5	-217.5	-331.5	0	0	0	0	0	0	0	0	0	0	0	0	0	0	0	0	0	0	0	0	0
1651653924017	-871.08	581.208	323.056	20.93	0.84	33.95	357	-222	-331.5	0	0	0	0	0	0	0	0	0	0	0	0	0	0	0	0	0	0	0	0	0
1651653924022	-867.664	590.48	296.216	26.53	5.18	35.21	357	-222	-331.5	0	0	0	0	0	0	0	0	0	0	0	0	0	0	0	0	0	0	0	0	0
1651653924027	-854	604.144	279.136	33.18	7.63	36.82	352.5	-219	-330	0	0	0	0	0	0	0	0	0	0	0	0	0	0	0	0	0	0	0	0	0
1651653924032	-832.04	591.456	264.984	44.17	10.36	41.02	352.5	-219	-330	0	0	0	0	0	0	0	0	0	0	0	0	0	0	0	0	0	0	0	0	0
1651653924037	-801.296	552.416	273.768	51.59	13.3	45.64	354	-225	-330	0	0	0	0	0	0	0	0	0	0	0	0	0	0	0	0	0	0	0	0	0
1651653924042	-788.608	514.84	281.576	58.87	17.57	50.61	354	-225	-330	0	0	0	0	0	0	0	0	0	0	0	0	0	0	0	0	0	0	0	0	0
1651653924047	-797.88	508.008	312.32	63.77	21.35	55.86	351	-229.5	-331.5	0	0	0	0	0	0	0	0	0	0	0	0	0	0	0	0	0	0	0	0	0
1651653924052	-826.672	519.232	326.472	65.87	23.94	59.22	351	-229.5	-331.5	0	0	0	0	0	0	0	0	0	0	0	0	0	0	0	0	0	0	0	0	0
1651653924057	-873.032	536.8	335.256	65.31	23.8	60.34	345	-226.5	-333	0	0	0	0	0	0	0	0	0	0	0	0	0	0	0	0	0	0	0	0	0
1651653924062	-900.848	530.944	345.504	62.86	21.49	59.29	345	-226.5	-333	0	0	0	0	0	0	0	0	0	0	0	0	0	0	0	0	0	0	0	0	0
1651653924063	-906.704	539.728	342.088	60.83	18.97	56.21	346.5	-235.5	-333	0	0	0	0	0	0	0	0	0	0	0	0	0	0	0	0	0	0	0	0	0
1651653924068	-906.704	556.808	338.184	58.45	16.38	52.22	346.5	-235.5	-333	0	0	0	0	0	0	0	0	0	0	0	0	0	0	0	0	0	0	0	0	0
1651653924073	-908.656	556.808	331.352	55.51	12.81	47.6	346.5	-246	-328.5	0	0	0	0	0	0	0	0	0	0	0	0	0	0	0	0	0	0	0	0	0
1651653924078	-906.216	556.32	329.4	52.36	8.19	43.12	346.5	-246	-328.5	0	0	0	0	0	0	0	0	0	0	0	0	0	0	0	0	0	0	0	0	0
1651653924083	-895.968	557.784	333.304	49.42	3.36	38.5	342	-252	-325.5	0	0	0	0	0	0	0	0	0	0	0	0	0	0	0	0	0	0	0	0	0
1651653924088	-898.896	570.472	344.04	46.41	-0.49	33.74	342	-252	-325.5	0	0	0	0	0	0	0	0	0	0	0	0	0	0	0	0	0	0	0	0	0
1651653924093	-899.872	569.984	349.896	44.17	-3.43	29.12	340.5	-252	-324	0	0	0	0	0	0	0	0	0	0	0	0	0	0	0	0	0	0	0	0	0
1651653924098	-866.688	520.696	458.232	45.78	-5.39	29.19	340.5	-252	-324	0	0	0	0	0	0	0	0	0	0	0	0	0	0	0	0	0	0	0	0	0
1651653924103	-907.192	621.712	304.024	40.04	-16.8	11.34	346.5	-255	-327	0	0	0	0	0	0	0	0	0	0	0	0	0	0	0	0	0	0	0	0	0
1651653924108	-884.744	619.272	285.968	49.07	-21.77	10.99	346.5	-255	-327	0	0	0	0	0	0	0	0	0	0	0	0	0	0	0	0	0	0	0	0	0
1651653924113	-758.84	533.384	298.168	57.68	-11.97	21.14	339	-253.5	-322.5	0	0	0	0	0	0	0	0	0	0	0	0	0	0	0	0	0	0	0	0	0
1651653924118	-686.616	490.928	307.44	73.85	5.25	32.48	339	-253.5	-322.5	0	0	0	0	0	0	0	0	0	0	0	0	0	0	0	0	0	0	0	0	0
1651653924123	-689.544	492.88	314.76	88.06	22.19	42.7	336	-258	-321	0	0	0	0	0	0	0	0	0	0	0	0	0	0	0	0	0	0	0	0	0
1651653924128	-737.368	461.648	355.264	94.64	32.27	52.22	336	-258	-321	0	0	0	0	0	0	0	0	0	0	0	0	0	0	0	0	0	0	0	0	0
1651653924133	-787.632	447.496	387.472	101.99	29.47	54.18	337.5	-261	-322.5	0	0	0	0	0	0	0	0	0	0	0	0	0	0	0	0	0	0	0	0	0
1651653924138	-816.912	470.432	419.68	100.8	17.85	48.65	337.5	-261	-322.5	0	0	0	0	0	0	0	0	0	0	0	0	0	0	0	0	0	0	0	0	0
1651653924143	-801.296	482.144	456.28	93.8	8.54	44.24	333	-262.5	-318	0	0	0	0	0	0	0	0	0	0	0	0	0	0	0	0	0	0	0	0	0
1651653924148	-780.312	477.264	494.344	89.39	9.8	43.19	333	-262.5	-318	0	0	0	0	0	0	0	0	0	0	0	0	0	0	0	0	0	0	0	0	0
1651653924153	-781.776	497.76	526.552	84.21	18.34	44.17	328.5	-267	-309	0	0	0	0	0	0	0	0	0	0	0	0	0	0	0	0	0	0	0	0	0
1651653924158	-827.648	503.128	513.864	77.28	23.45	43.19	328.5	-267	-309	0	0	0	0	0	0	0	0	0	0	0	0	0	0	0	0	0	0	0	0	0
1651653924163	-860.832	516.792	475.8	72.17	19.11	38.22	327	-273	-307.5	0	0	0	0	0	0	0	0	0	0	0	0	0	0	0	0	0	0	0	0	0
1651653924168	-847.656	538.752	430.904	68.32	10.5	30.94	327	-273	-307.5	0	0	0	0	0	0	0	0	0	0	0	0	0	0	0	0	0	0	0	0	0
1651653924173	-802.76	560.712	389.424	67.9	6.3	26.46	325.5	-277.5	-313.5	0	0	0	0	0	0	0	0	0	0	0	0	0	0	0	0	0	0	0	0	0
1651653924178	-791.048	568.032	369.904	70.63	8.47	26.67	325.5	-277.5	-313.5	0	0	0	0	0	0	0	0	0	0	0	0	0	0	0	0	0	0	0	0	0
1651653924183	-797.88	570.472	364.536	76.51	14	27.86	325.5	-277.5	-313.5	0	0	0	0	0	0	0	0	0	0	0	0	0	0	0	0	0	0	0	0	0
1651653924188	-825.208	603.168	403.088	80.64	17.22	27.51	321	-279	-309	0	0	0	0	0	0	0	0	0	0	0	0	0	0	0	0	0	0	0	0	0
1651653924193	-851.072	622.688	431.392	81.62	17.43	25.06	321	-279	-309	0	0	0	0	0	0	0	0	0	0	0	0	0	0	0	0	0	0	0	0	0
1651653924198	-865.224	635.376	467.504	79.59	17.36	21	324	-283.5	-304.5	0	0	0	0	0	0	0	0	0	0	0	0	0	0	0	0	0	0	0	0	0
1651653924200	-838.384	597.312	452.376	77.28	18.69	17.71	324	-283.5	-304.5	0	0	0	0	0	0	0	0	0	0	0	0	0	0	0	0	0	0	0	0	0
1651653924205	-817.888	601.704	447.984	76.65	20.44	14.49	321	-285	-301.5	0	0	0	0	0	0	0	0	0	0	0	0	0	0	0	0	0	0	0	0	0
1651653924210	-804.712	591.456	448.472	73.64	22.26	12.25	321	-285	-301.5	0	0	0	0	0	0	0	0	0	0	0	0	0	0	0	0	0	0	0	0	0
1651653924215	-779.824	560.712	423.584	69.93	21.77	9.94	325.5	-286.5	-294	0	0	0	0	0	0	0	0	0	0	0	0	0	0	0	0	0	0	0	0	0
1651653924220	-754.448	539.24	404.552	67.48	20.23	8.05	325.5	-286.5	-294	0	0	0	0	0	0	0	0	0	0	0	0	0	0	0	0	0	0	0	0	0
1651653924225	-736.88	518.256	402.112	65.73	19.39	7.28	324	-285	-291	0	0	0	0	0	0	0	0	0	0	0	0	0	0	0	0	0	0	0	0	0
1651653924230	-720.288	497.76	393.816	65.24	19.11	7.77	324	-285	-291	0	0	0	0	0	0	0	0	0	0	0	0	0	0	0	0	0	0	0	0	0
1651653924235	-701.256	497.272	371.856	67.13	20.72	10.29	325.5	-285	-289.5	0	0	0	0	0	0	0	0	0	0	0	0	0	0	0	0	0	0	0	0	0
1651653924240	-691.496	507.52	326.472	73.92	25.9	15.82	325.5	-285	-289.5	0	0	0	0	0	0	0	0	0	0	0	0	0	0	0	0	0	0	0	0	0
1651653924245	-652.456	509.472	257.176	85.82	36.19	23.03	330	-285	-282	0	0	0	0	0	0	0	0	0	0	0	0	0	0	0	0	0	0	0	0	0
1651653924250	-605.12	515.816	233.264	98.98	45.71	33.32	330	-285	-282	0	0	0	0	0	0	0	0	0	0	0	0	0	0	0	0	0	0	0	0	0
1651653924255	-627.568	517.28	241.56	111.23	53.69	44.8	327	-288	-277.5	0	0	0	0	0	0	0	0	0	0	0	0	0	0	0	0	0	0	0	0	0
1651653924260	-679.296	523.624	255.224	120.89	60.55	54.53	327	-288	-277.5	0	0	0	0	0	0	0	0	0	0	0	0	0	0	0	0	0	0	0	0	0
1651653924265	-719.8	537.776	286.456	125.51	65.87	59.92	316.5	-291	-274.5	0	0	0	0	0	0	0	0	0	0	0	0	0	0	0	0	0	0	0	0	0
1651653924270	-748.104	554.856	321.592	125.09	67.69	61.32	316.5	-291	-274.5	0	0	0	0	0	0	0	0	0	0	0	0	0	0	0	0	0	0	0	0	0
1651653924275	-791.048	556.808	347.944	118.72	66.85	58.87	306	-294	-262.5	0	0	0	0	0	0	0	0	0	0	0	0	0	0	0	0	0	0	0	0	0
1651653924280	-805.2	582.672	355.264	108.43	63.77	53.2	306	-294	-262.5	0	0	0	0	0	0	0	0	0	0	0	0	0	0	0	0	0	0	0	0	0
1651653924285	-817.888	598.288	343.064	94.01	59.78	45.43	312	-301.5	-256.5	0	0	0	0	0	0	0	0	0	0	0	0	0	0	0	0	0	0	0	0	0
1651653924290	-802.272	606.096	311.344	77.91	53.62	36.26	312	-301.5	-256.5	0	0	0	0	0	0	0	0	0	0	0	0	0	0	0	0	0	0	0	0	0
1651653924295	-765.672	601.216	255.712	61.95	46.13	27.51	310.5	-306	-253.5	0	0	0	0	0	0	0	0	0	0	0	0	0	0	0	0	0	0	0	0	0
1651653924300	-728.096	591.944	196.664	48.51	37.94	19.88	310.5	-306	-253.5	0	0	0	0	0	0	0	0	0	0	0	0	0	0	0	0	0	0	0	0	0
1651653924305	-713.456	588.528	153.232	38.57	29.89	13.65	304.5	-307.5	-247.5	0	0	0	0	0	0	0	0	0	0	0	0	0	0	0	0	0	0	0	0	0
1651653924310	-710.04	597.8	144.936	31.29	23.38	9.8	304.5	-307.5	-247.5	0	0	0	0	0	0	0	0	0	0	0	0	0	0	0	0	0	0	0	0	0
1651653924315	-713.456	611.952	126.392	27.44	19.88	7.35	310.5	-306	-240	0	0	0	0	0	0	0	0	0	0	0	0	0	0	0	0	0	0	0	0	0
1651653924320	-707.112	642.208	108.824	26.67	19.04	6.58	310.5	-306	-240	0	0	0	0	0	0	0	0	0	0	0	0	0	0	0	0	0	0	0	0	0
1651653924325	-700.28	662.704	61.976	29.68	21.14	8.12	309	-306	-237	0	0	0	0	0	0	0	0	0	0	0	0	0	0	0	0	0	0	0	0	0
1651653924330	-664.168	671	19.52	36.61	25.55	12.39	309	-306	-237	0	0	0	0	0	0	0	0	0	0	0	0	0	0	0	0	0	0	0	0	0
1651653924335	-643.184	673.44	1.952	45.36	30.52	18.48	307.5	-304.5	-232.5	0	0	0	0	0	0	0	0	0	0	0	0	0	0	0	0	0	0	0	0	0
1651653924337	-653.92	672.952	6.832	53.34	34.65	24.78	307.5	-304.5	-232.5	0	0	0	0	0	0	0	0	0	0	0	0	0	0	0	0	0	0	0	0	0
1651653924342	-673.44	655.384	22.936	59.85	37.87	30.45	307.5	-306	-225	0	0	0	0	0	0	0	0	0	0	0	0	0	0	0	0	0	0	0	0	0
1651653924347	-692.96	648.552	57.584	63.49	39.97	34.51	307.5	-306	-225	0	0	0	0	0	0	0	0	0	0	0	0	0	0	0	0	0	0	0	0	0
1651653924352	-715.408	652.944	95.16	63.35	40.88	36.61	303	-309	-225	0	0	0	0	0	0	0	0	0	0	0	0	0	0	0	0	0	0	0	0	0
1651653924357	-734.928	653.432	125.416	58.31	39.69	34.86	303	-309	-225	0	0	0	0	0	0	0	0	0	0	0	0	0	0	0	0	0	0	0	0	0
1651653924362	-741.272	655.384	132.248	45.43	33.53	31.57	297	-315	-220.5	0	0	0	0	0	0	0	0	0	0	0	0	0	0	0	0	0	0	0	0	0
1651653924367	-733.952	658.312	126.392	35.35	27.93	27.02	297	-315	-220.5	0	0	0	0	0	0	0	0	0	0	0	0	0	0	0	0	0	0	0	0	0
1651653924372	-722.24	653.92	112.728	25.13	21.91	22.12	298.5	-318	-213	0	0	0	0	0	0	0	0	0	0	0	0	0	0	0	0	0	0	0	0	0
1651653924377	-703.696	649.528	86.864	16.1	16.1	17.92	298.5	-318	-213	0	0	0	0	0	0	0	0	0	0	0	0	0	0	0	0	0	0	0	0	0
1651653924382	-677.344	639.28	65.392	8.54	10.29	14.42	298.5	-318	-213	0	0	0	0	0	0	0	0	0	0	0	0	0	0	0	0	0	0	0	0	0
1651653924387	-692.96	646.112	58.56	2.45	3.99	10.78	294	-315	-210	0	0	0	0	0	0	0	0	0	0	0	0	0	0	0	0	0	0	0	0	0
1651653924392	-620.248	642.696	31.232	-4.55	-6.3	3.92	294	-315	-210	0	0	0	0	0	0	0	0	0	0	0	0	0	0	0	0	0	0	0	0	0
1651653924397	-616.832	641.72	89.792	-3.29	1.12	10.57	286.5	-315	-213	0	0	0	0	0	0	0	0	0	0	0	0	0	0	0	0	0	0	0	0	0
1651653924402	-715.896	637.816	5.368	-10.36	-9.87	8.05	286.5	-315	-213	0	0	0	0	0	0	0	0	0	0	0	0	0	0	0	0	0	0	0	0	0
1651653924407	-676.368	638.792	59.048	-10.99	-24.01	3.99	288	-315	-213	0	0	0	0	0	0	0	0	0	0	0	0	0	0	0	0	0	0	0	0	0
1651653924412	-698.328	703.696	63.928	-13.3	-29.05	-2.03	288	-315	-213	0	0	0	0	0	0	0	0	0	0	0	0	0	0	0	0	0	0	0	0	0
1651653924417	-658.8	674.904	88.328	-14.28	-27.44	0.7	294	-313.5	-211.5	0	0	0	0	0	0	0	0	0	0	0	0	0	0	0	0	0	0	0	0	0
1651653924422	-668.56	702.72	133.224	-10.85	-17.43	4.9	294	-313.5	-211.5	0	0	0	0	0	0	0	0	0	0	0	0	0	0	0	0	0	0	0	0	0
1651653924427	-734.928	728.584	139.08	-9.38	-7.42	6.44	292.5	-310.5	-210	0	0	0	0	0	0	0	0	0	0	0	0	0	0	0	0	0	0	0	0	0
1651653924432	-744.688	742.736	111.264	-7.07	-6.02	6.72	292.5	-310.5	-210	0	0	0	0	0	0	0	0	0	0	0	0	0	0	0	0	0	0	0	0	0
1651653924437	-730.048	738.344	106.384	-3.92	-7.07	5.6	292.5	-312	-211.5	0	0	0	0	0	0	0	0	0	0	0	0	0	0	0	0	0	0	0	0	0
1651653924442	-687.104	720.776	108.824	-0.14	-7.28	4.69	292.5	-312	-211.5	0	0	0	0	0	0	0	0	0	0	0	0	0	0	0	0	0	0	0	0	0
1651653924447	-666.12	697.352	126.392	3.08	-3.85	8.05	297	-315	-210	0	0	0	0	0	0	0	0	0	0	0	0	0	0	0	0	0	0	0	0	0
1651653924452	-681.248	681.248	156.648	5.46	1.54	12.32	297	-315	-210	0	0	0	0	0	0	0	0	0	0	0	0	0	0	0	0	0	0	0	0	0
1651653924457	-712.968	670.512	176.656	5.88	3.64	14.56	295.5	-319.5	-210	0	0	0	0	0	0	0	0	0	0	0	0	0	0	0	0	0	0	0	0	0
1651653924462	-730.048	669.048	185.928	4.13	1.75	14.21	295.5	-319.5	-210	0	0	0	0	0	0	0	0	0	0	0	0	0	0	0	0	0	0	0	0	0
1651653924467	-730.048	667.584	193.736	0.7	-1.12	12.46	295.5	-325.5	-216	0	0	0	0	0	0	0	0	0	0	0	0	0	0	0	0	0	0	0	0	0
1651653924472	-779.824	681.736	240.096	-2.94	-3.92	9.94	295.5	-325.5	-216	0	0	0	0	0	0	0	0	0	0	0	0	0	0	0	0	0	0	0	0	0
1651653924474	-762.256	692.96	151.768	-14.28	-19.11	2.52	292.5	-322.5	-214.5	0	0	0	0	0	0	0	0	0	0	0	0	0	0	0	0	0	0	0	0	0
1651653924479	-638.304	649.04	181.048	-14.91	-14	7.21	292.5	-322.5	-214.5	0	0	0	0	0	0	0	0	0	0	0	0	0	0	0	0	0	0	0	0	0
1651653924484	-733.952	710.528	183.976	-11.97	-4.48	4.97	291	-321	-214.5	0	0	0	0	0	0	0	0	0	0	0	0	0	0	0	0	0	0	0	0	0
1651653924489	-760.792	653.92	245.464	-16.45	-5.81	8.54	291	-321	-214.5	0	0	0	0	0	0	0	0	0	0	0	0	0	0	0	0	0	0	0	0	0
1651653924494	-801.784	716.384	197.152	-22.75	-12.95	2.52	289.5	-321	-213	0	0	0	0	0	0	0	0	0	0	0	0	0	0	0	0	0	0	0	0	0
1651653924499	-786.656	706.136	178.12	-25.27	-20.51	-2.59	289.5	-321	-213	0	0	0	0	0	0	0	0	0	0	0	0	0	0	0	0	0	0	0	0	0
1651653924504	-793.488	720.776	171.776	-27.44	-23.87	-7.28	286.5	-322.5	-214.5	0	0	0	0	0	0	0	0	0	0	0	0	0	0	0	0	0	0	0	0	0
1651653924509	-796.416	753.472	143.472	-30.94	-25.34	-9.87	286.5	-322.5	-214.5	0	0	0	0	0	0	0	0	0	0	0	0	0	0	0	0	0	0	0	0	0
1651653924514	-812.52	781.288	106.872	-31.5	-28.56	-13.65	285	-319.5	-222	0	0	0	0	0	0	0	0	0	0	0	0	0	0	0	0	0	0	0	0	0
1651653924519	-790.072	806.176	51.728	-29.96	-33.88	-17.71	285	-319.5	-222	0	0	0	0	0	0	0	0	0	0	0	0	0	0	0	0	0	0	0	0	0
1651653924524	-756.4	821.792	9.76	-20.3	-37.59	-19.39	289.5	-312	-223.5	0	0	0	0	0	0	0	0	0	0	0	0	0	0	0	0	0	0	0	0	0
1651653924529	-696.864	793.488	6.832	-9.45	-35.77	-17.43	289.5	-312	-223.5	0	0	0	0	0	0	0	0	0	0	0	0	0	0	0	0	0	0	0	0	0
1651653924534	-687.592	767.624	39.04	1.33	-28.98	-13.51	294	-319.5	-225	0	0	0	0	0	0	0	0	0	0	0	0	0	0	0	0	0	0	0	0	0
1651653924539	-682.224	747.128	66.856	9.24	-20.51	-7.28	294	-319.5	-225	0	0	0	0	0	0	0	0	0	0	0	0	0	0	0	0	0	0	0	0	0
1651653924544	-714.92	721.264	91.744	14.14	-14.42	-1.82	292.5	-321	-223.5	0	0	0	0	0	0	0	0	0	0	0	0	0	0	0	0	0	0	0	0	0
1651653924549	-742.248	712.968	121.024	15.19	-13.16	0.07	292.5	-321	-223.5	0	0	0	0	0	0	0	0	0	0	0	0	0	0	0	0	0	0	0	0	0
1651653924554	-721.752	690.032	144.936	12.53	-13.93	0.28	295.5	-315	-228	0	0	0	0	0	0	0	0	0	0	0	0	0	0	0	0	0	0	0	0	0
1651653924559	-710.04	680.272	153.72	9.45	-14.07	0.35	295.5	-315	-228	0	0	0	0	0	0	0	0	0	0	0	0	0	0	0	0	0	0	0	0	0
1651653924564	-724.192	683.2	160.064	6.51	-12.74	0.91	294	-316.5	-228	0	0	0	0	0	0	0	0	0	0	0	0	0	0	0	0	0	0	0	0	0
1651653924569	-720.776	688.08	144.936	2.45	-13.86	0.91	294	-316.5	-228	0	0	0	0	0	0	0	0	0	0	0	0	0	0	0	0	0	0	0	0	0
1651653924574	-731.024	689.544	131.272	-0.35	-17.92	-1.12	289.5	-316.5	-222	0	0	0	0	0	0	0	0	0	0	0	0	0	0	0	0	0	0	0	0	0
1651653924579	-735.416	707.6	134.688	-3.64	-22.05	-4.55	289.5	-316.5	-222	0	0	0	0	0	0	0	0	0	0	0	0	0	0	0	0	0	0	0	0	0
1651653924584	-728.096	708.088	143.472	-6.3	-25.13	-6.72	289.5	-316.5	-222	0	0	0	0	0	0	0	0	0	0	0	0	0	0	0	0	0	0	0	0	0
1651653924589	-765.672	719.312	163.48	-9.24	-26.11	-8.75	294	-316.5	-223.5	0	0	0	0	0	0	0	0	0	0	0	0	0	0	0	0	0	0	0	0	0
1651653924594	-757.376	719.312	171.288	-13.93	-29.05	-11.76	294	-316.5	-223.5	0	0	0	0	0	0	0	0	0	0	0	0	0	0	0	0	0	0	0	0	0
1651653924599	-758.352	700.28	178.608	-19.32	-33.04	-16.1	295.5	-316.5	-225	0	0	0	0	0	0	0	0	0	0	0	0	0	0	0	0	0	0	0	0	0
1651653924604	-729.072	690.032	182.512	-25.34	-35.84	-21.35	295.5	-316.5	-225	0	0	0	0	0	0	0	0	0	0	0	0	0	0	0	0	0	0	0	0	0
1651653924609	-742.248	673.928	182.024	-32.06	-39.2	-25.76	297	-316.5	-232.5	0	0	0	0	0	0	0	0	0	0	0	0	0	0	0	0	0	0	0	0	0
1651653924610	-734.44	678.32	177.632	-39.13	-43.68	-30.52	297	-316.5	-232.5	0	0	0	0	0	0	0	0	0	0	0	0	0	0	0	0	0	0	0	0	0
1651653924615	-721.752	676.368	174.216	-45.71	-50.54	-35.42	295.5	-315	-240	0	0	0	0	0	0	0	0	0	0	0	0	0	0	0	0	0	0	0	0	0
1651653924620	-699.304	663.192	164.456	-49.63	-55.58	-38.5	295.5	-315	-240	0	0	0	0	0	0	0	0	0	0	0	0	0	0	0	0	0	0	0	0	0
1651653924625	-691.984	670.512	163.48	-50.05	-57.61	-38.78	298.5	-313.5	-244.5	0	0	0	0	0	0	0	0	0	0	0	0	0	0	0	0	0	0	0	0	0
1651653924630	-689.056	646.6	168.848	-48.37	-56.98	-37.87	298.5	-313.5	-244.5	0	0	0	0	0	0	0	0	0	0	0	0	0	0	0	0	0	0	0	0	0
1651653924635	-681.248	646.6	170.312	-42.91	-56.98	-36.26	301.5	-312	-246	0	0	0	0	0	0	0	0	0	0	0	0	0	0	0	0	0	0	0	0	0
1651653924640	-676.368	644.16	184.464	-34.51	-54.67	-32.48	301.5	-312	-246	0	0	0	0	0	0	0	0	0	0	0	0	0	0	0	0	0	0	0	0	0
1651653924645	-675.392	632.448	220.576	-23.1	-47.25	-25.27	300	-312	-253.5	0	0	0	0	0	0	0	0	0	0	0	0	0	0	0	0	0	0	0	0	0
1651653924650	-733.464	617.808	268.888	-11.48	-36.19	-15.96	300	-312	-253.5	0	0	0	0	0	0	0	0	0	0	0	0	0	0	0	0	0	0	0	0	0
1651653924655	-473.36	583.16	325.984	-6.93	-19.74	-4.2	294	-306	-255	0	0	0	0	0	0	0	0	0	0	0	0	0	0	0	0	0	0	0	0	0
1651653924660	-706.624	616.832	338.184	4.27	-17.08	-2.66	294	-306	-255	0	0	0	0	0	0	0	0	0	0	0	0	0	0	0	0	0	0	0	0	0
1651653924665	-759.816	610.488	346.968	3.5	-10.57	-0.77	298.5	-309	-259.5	0	0	0	0	0	0	0	0	0	0	0	0	0	0	0	0	0	0	0	0	0
1651653924670	-757.864	619.272	354.776	2.31	-7.56	-0.84	298.5	-309	-259.5	0	0	0	0	0	0	0	0	0	0	0	0	0	0	0	0	0	0	0	0	0
1651653924675	-766.16	640.256	351.848	-1.12	-5.32	-1.26	306	-307.5	-262.5	0	0	0	0	0	0	0	0	0	0	0	0	0	0	0	0	0	0	0	0	0
1651653924680	-772.992	650.016	339.16	-5.11	-3.43	-2.17	306	-307.5	-262.5	0	0	0	0	0	0	0	0	0	0	0	0	0	0	0	0	0	0	0	0	0
1651653924685	-767.624	652.944	321.104	-8.33	-2.59	-3.85	303	-304.5	-259.5	0	0	0	0	0	0	0	0	0	0	0	0	0	0	0	0	0	0	0	0	0
1651653924690	-757.864	647.088	296.216	-12.81	-2.59	-6.02	303	-304.5	-259.5	0	0	0	0	0	0	0	0	0	0	0	0	0	0	0	0	0	0	0	0	0
1651653924695	-742.248	631.472	289.872	-15.19	-3.5	-7.21	303	-309	-259.5	0	0	0	0	0	0	0	0	0	0	0	0	0	0	0	0	0	0	0	0	0
1651653924700	-718.824	619.76	286.944	-17.85	-4.9	-7.7	303	-309	-259.5	0	0	0	0	0	0	0	0	0	0	0	0	0	0	0	0	0	0	0	0	0
1651653924705	-711.504	588.528	288.408	-21.42	-6.58	-8.19	301.5	-307.5	-262.5	0	0	0	0	0	0	0	0	0	0	0	0	0	0	0	0	0	0	0	0	0
1651653924710	-697.84	572.424	293.288	-25.48	-9.1	-9.45	301.5	-307.5	-262.5	0	0	0	0	0	0	0	0	0	0	0	0	0	0	0	0	0	0	0	0	0
1651653924715	-692.472	556.808	288.408	-31.36	-12.74	-11.06	306	-310.5	-259.5	0	0	0	0	0	0	0	0	0	0	0	0	0	0	0	0	0	0	0	0	0
1651653924720	-694.424	554.856	282.064	-37.94	-18.34	-13.44	306	-310.5	-259.5	0	0	0	0	0	0	0	0	0	0	0	0	0	0	0	0	0	0	0	0	0
1651653924725	-692.96	567.056	268.888	-44.87	-25.06	-16.73	301.5	-312	-265.5	0	0	0	0	0	0	0	0	0	0	0	0	0	0	0	0	0	0	0	0	0
1651653924730	-696.376	591.944	254.248	-50.47	-31.78	-20.3	301.5	-312	-265.5	0	0	0	0	0	0	0	0	0	0	0	0	0	0	0	0	0	0	0	0	0
1651653924735	-697.352	619.272	242.536	-54.32	-36.82	-23.24	297	-304.5	-267	0	0	0	0	0	0	0	0	0	0	0	0	0	0	0	0	0	0	0	0	0
1651653924740	-702.72	645.136	239.12	-56.56	-39.69	-25.27	297	-304.5	-267	0	0	0	0	0	0	0	0	0	0	0	0	0	0	0	0	0	0	0	0	0
1651653924745	-697.84	651.968	230.336	-57.12	-40.88	-26.25	298.5	-300	-267	0	0	0	0	0	0	0	0	0	0	0	0	0	0	0	0	0	0	0	0	0
1651653924747	-711.992	662.216	234.728	-56.28	-41.23	-27.09	298.5	-300	-267	0	0	0	0	0	0	0	0	0	0	0	0	0	0	0	0	0	0	0	0	0
1651653924752	-714.92	677.344	239.608	-54.88	-41.93	-28.07	298.5	-297	-276	0	0	0	0	0	0	0	0	0	0	0	0	0	0	0	0	0	0	0	0	0
1651653924757	-702.72	675.392	234.24	-52.92	-41.58	-28.07	298.5	-297	-276	0	0	0	0	0	0	0	0	0	0	0	0	0	0	0	0	0	0	0	0	0
1651653924762	-722.728	685.152	241.072	-48.44	-39.48	-28.56	303	-295.5	-280.5	0	0	0	0	0	0	0	0	0	0	0	0	0	0	0	0	0	0	0	0	0
1651653924767	-711.016	680.76	252.296	-43.26	-37.87	-26.6	303	-295.5	-280.5	0	0	0	0	0	0	0	0	0	0	0	0	0	0	0	0	0	0	0	0	0
1651653924772	-700.28	664.168	254.248	-37.45	-34.72	-23.38	303	-295.5	-280.5	0	0	0	0	0	0	0	0	0	0	0	0	0	0	0	0	0	0	0	0	0
1651653924777	-717.36	653.92	270.84	-30.73	-31.15	-20.02	306	-298.5	-285	0	0	0	0	0	0	0	0	0	0	0	0	0	0	0	0	0	0	0	0	0
1651653924782	-737.856	656.848	287.432	-25.62	-29.26	-17.57	306	-298.5	-285	0	0	0	0	0	0	0	0	0	0	0	0	0	0	0	0	0	0	0	0	0
1651653924787	-737.368	653.432	304.512	-22.26	-28.21	-15.54	306	-295.5	-285	0	0	0	0	0	0	0	0	0	0	0	0	0	0	0	0	0	0	0	0	0
1651653924792	-756.4	653.92	314.76	-19.95	-26.74	-14.77	306	-295.5	-285	0	0	0	0	0	0	0	0	0	0	0	0	0	0	0	0	0	0	0	0	0
1651653924797	-755.912	657.824	325.008	-19.6	-25.69	-15.05	307.5	-297	-291	0	0	0	0	0	0	0	0	0	0	0	0	0	0	0	0	0	0	0	0	0
1651653924802	-745.664	645.624	329.888	-21.28	-25.48	-14.42	307.5	-297	-291	0	0	0	0	0	0	0	0	0	0	0	0	0	0	0	0	0	0	0	0	0
1651653924807	-749.08	631.96	332.328	-23.52	-25.55	-15.05	306	-297	-292.5	0	0	0	0	0	0	0	0	0	0	0	0	0	0	0	0	0	0	0	0	0
1651653924812	-763.232	638.792	342.576	-28.07	-28.35	-17.5	306	-297	-292.5	0	0	0	0	0	0	0	0	0	0	0	0	0	0	0	0	0	0	0	0	0
1651653924817	-754.448	635.376	350.872	-34.79	-33.81	-20.02	303	-294	-291	0	0	0	0	0	0	0	0	0	0	0	0	0	0	0	0	0	0	0	0	0
1651653924822	-743.712	589.992	340.624	-39.62	-38.22	-24.71	303	-294	-291	0	0	0	0	0	0	0	0	0	0	0	0	0	0	0	0	0	0	0	0	0
1651653924827	-745.664	614.88	390.888	-45.57	-43.4	-28.21	307.5	-294	-300	0	0	0	0	0	0	0	0	0	0	0	0	0	0	0	0	0	0	0	0	0
1651653924832	-755.424	588.04	413.336	-53.48	-47.74	-30.87	307.5	-294	-300	0	0	0	0	0	0	0	0	0	0	0	0	0	0	0	0	0	0	0	0	0
1651653924837	-773.968	583.16	435.784	-61.46	-51.1	-34.79	313.5	-289.5	-306	0	0	0	0	0	0	0	0	0	0	0	0	0	0	0	0	0	0	0	0	0
1651653924842	-774.944	590.48	437.248	-69.79	-54.6	-38.22	313.5	-289.5	-306	0	0	0	0	0	0	0	0	0	0	0	0	0	0	0	0	0	0	0	0	0
1651653924847	-772.016	577.304	432.856	-77.21	-57.89	-41.16	313.5	-292.5	-309	0	0	0	0	0	0	0	0	0	0	0	0	0	0	0	0	0	0	0	0	0
1651653924852	-742.736	562.664	410.896	-80.36	-59.29	-43.4	313.5	-292.5	-309	0	0	0	0	0	0	0	0	0	0	0	0	0	0	0	0	0	0	0	0	0
1651653924857	-753.472	594.384	400.648	-81.48	-58.73	-43.61	312	-294	-312	0	0	0	0	0	0	0	0	0	0	0	0	0	0	0	0	0	0	0	0	0
1651653924862	-736.88	598.288	387.96	-78.47	-55.72	-42.07	312	-294	-312	0	0	0	0	0	0	0	0	0	0	0	0	0	0	0	0	0	0	0	0	0
1651653924867	-745.176	611.464	375.76	-73.71	-52.01	-40.25	312	-285	-319.5	0	0	0	0	0	0	0	0	0	0	0	0	0	0	0	0	0	0	0	0	0
1651653924872	-739.32	611.464	373.32	-67.83	-48.23	-38.15	312	-285	-319.5	0	0	0	0	0	0	0	0	0	0	0	0	0	0	0	0	0	0	0	0	0
1651653924877	-731.024	598.776	366.488	-61.67	-44.87	-36.05	315	-279	-322.5	0	0	0	0	0	0	0	0	0	0	0	0	0	0	0	0	0	0	0	0	0
1651653924882	-714.432	578.28	377.712	-56.14	-43.19	-32.55	315	-279	-322.5	0	0	0	0	0	0	0	0	0	0	0	0	0	0	0	0	0	0	0	0	0
1651653924884	-716.384	565.592	393.328	-52.43	-41.44	-30.45	313.5	-276	-324	0	0	0	0	0	0	0	0	0	0	0	0	0	0	0	0	0	0	0	0	0
1651653924889	-737.856	552.416	426.024	-50.12	-41.23	-30.17	313.5	-276	-324	0	0	0	0	0	0	0	0	0	0	0	0	0	0	0	0	0	0	0	0	0
1651653924894	-742.248	541.192	453.84	-51.8	-43.54	-31.15	315	-271.5	-333	0	0	0	0	0	0	0	0	0	0	0	0	0	0	0	0	0	0	0	0	0
1651653924899	-755.912	535.336	481.656	-54.39	-46.83	-32.06	315	-271.5	-333	0	0	0	0	0	0	0	0	0	0	0	0	0	0	0	0	0	0	0	0	0
1651653924904	-755.912	517.768	501.664	-59.71	-49.28	-33.81	318	-271.5	-342	0	0	0	0	0	0	0	0	0	0	0	0	0	0	0	0	0	0	0	0	0
1651653924909	-737.856	500.2	540.704	-66.78	-52.92	-37.31	318	-271.5	-342	0	0	0	0	0	0	0	0	0	0	0	0	0	0	0	0	0	0	0	0	0
1651653924914	-758.84	498.736	571.448	-75.88	-58.94	-41.58	319.5	-276	-343.5	0	0	0	0	0	0	0	0	0	0	0	0	0	0	0	0	0	0	0	0	0
1651653924919	-790.56	492.88	591.456	-88.2	-65.59	-46.62	319.5	-276	-343.5	0	0	0	0	0	0	0	0	0	0	0	0	0	0	0	0	0	0	0	0	0
1651653924924	-770.064	476.776	576.816	-98.28	-72.03	-53.27	318	-271.5	-345	0	0	0	0	0	0	0	0	0	0	0	0	0	0	0	0	0	0	0	0	0
1651653924929	-772.504	489.464	569.496	-107.73	-76.79	-57.4	318	-271.5	-345	0	0	0	0	0	0	0	0	0	0	0	0	0	0	0	0	0	0	0	0	0
1651653924934	-725.656	495.32	548.024	-114.31	-80.08	-61.18	318	-262.5	-357	0	0	0	0	0	0	0	0	0	0	0	0	0	0	0	0	0	0	0	0	0
1651653924939	-795.928	436.76	510.448	-118.65	-86.24	-67.13	318	-262.5	-357	0	0	0	0	0	0	0	0	0	0	0	0	0	0	0	0	0	0	0	0	0
1651653924944	-676.856	467.504	542.168	-126.14	-91.98	-69.51	318	-258	-369	0	0	0	0	0	0	0	0	0	0	0	0	0	0	0	0	0	0	0	0	0
1651653924949	-640.744	441.152	470.92	-130.76	-90.3	-67.34	318	-258	-369	0	0	0	0	0	0	0	0	0	0	0	0	0	0	0	0	0	0	0	0	0
1651653924954	-690.032	441.64	445.056	-126.42	-93.94	-63.49	315	-252	-372	0	0	0	0	0	0	0	0	0	0	0	0	0	0	0	0	0	0	0	0	0
1651653924959	-671	438.224	441.152	-122.99	-96.95	-61.95	315	-252	-372	0	0	0	0	0	0	0	0	0	0	0	0	0	0	0	0	0	0	0	0	0
1651653924964	-625.616	423.096	455.304	-116.41	-93.45	-55.93	318	-240	-381	0	0	0	0	0	0	0	0	0	0	0	0	0	0	0	0	0	0	0	0	0
1651653924969	-631.472	406.992	484.096	-106.05	-84.07	-46.9	318	-240	-381	0	0	0	0	0	0	0	0	0	0	0	0	0	0	0	0	0	0	0	0	0
1651653924974	-665.632	398.208	520.696	-96.32	-76.09	-39.55	318	-240	-381	0	0	0	0	0	0	0	0	0	0	0	0	0	0	0	0	0	0	0	0	0
1651653924979	-692.96	406.504	545.096	-90.3	-73.71	-35.49	321	-234	-391.5	0	0	0	0	0	0	0	0	0	0	0	0	0	0	0	0	0	0	0	0	0
1651653924984	-721.264	411.872	577.792	-86.24	-76.3	-33.6	321	-234	-391.5	0	0	0	0	0	0	0	0	0	0	0	0	0	0	0	0	0	0	0	0	0
1651653924989	-736.392	408.944	623.176	-84.35	-78.75	-32.55	316.5	-232.5	-400.5	0	0	0	0	0	0	0	0	0	0	0	0	0	0	0	0	0	0	0	0	0
1651653924994	-746.152	408.944	655.384	-83.79	-77.49	-31.85	316.5	-232.5	-400.5	0	0	0	0	0	0	0	0	0	0	0	0	0	0	0	0	0	0	0	0	0
1651653924999	-740.296	406.504	683.2	-83.93	-73.5	-31.64	316.5	-237	-406.5	0	0	0	0	0	0	0	0	0	0	0	0	0	0	0	0	0	0	0	0	0
1651653925004	-745.176	404.552	693.448	-84.28	-69.86	-31.15	316.5	-237	-406.5	0	0	0	0	0	0	0	0	0	0	0	0	0	0	0	0	0	0	0	0	0
1651653925009	-744.688	408.456	688.08	-85.19	-66.29	-30.66	322.5	-235.5	-414	0	0	0	0	0	0	0	0	0	0	0	0	0	0	0	0	0	0	0	0	0
1651653925014	-728.584	382.592	661.728	-84	-61.81	-30.45	322.5	-235.5	-414	0	0	0	0	0	0	0	0	0	0	0	0	0	0	0	0	0	0	0	0	0
1651653925019	-716.872	383.568	656.36	-80.92	-58.1	-28.77	324	-228	-420	0	0	0	0	0	0	0	0	0	0	0	0	0	0	0	0	0	0	0	0	0
1651653925020	-676.368	345.016	649.04	-79.59	-54.25	-27.23	324	-228	-420	0	0	0	0	0	0	0	0	0	0	0	0	0	0	0	0	0	0	0	0	0
1651653925025	-664.168	329.888	650.504	-78.33	-53.41	-25.69	322.5	-225	-421.5	0	0	0	0	0	0	0	0	0	0	0	0	0	0	0	0	0	0	0	0	0
1651653925030	-668.072	326.96	668.56	-78.68	-54.67	-24.5	322.5	-225	-421.5	0	0	0	0	0	0	0	0	0	0	0	0	0	0	0	0	0	0	0	0	0
1651653925035	-674.416	296.216	677.832	-79.73	-55.58	-24.57	321	-214.5	-427.5	0	0	0	0	0	0	0	0	0	0	0	0	0	0	0	0	0	0	0	0	0
1651653925040	-676.368	298.656	695.888	-82.25	-56.98	-24.85	321	-214.5	-427.5	0	0	0	0	0	0	0	0	0	0	0	0	0	0	0	0	0	0	0	0	0
1651653925045	-680.76	292.8	689.056	-86.8	-59.29	-25.76	318	-208.5	-433.5	0	0	0	0	0	0	0	0	0	0	0	0	0	0	0	0	0	0	0	0	0
1651653925050	-672.464	288.896	685.64	-90.51	-62.37	-27.37	318	-208.5	-433.5	0	0	0	0	0	0	0	0	0	0	0	0	0	0	0	0	0	0	0	0	0
1651653925055	-668.072	309.392	684.176	-93.87	-65.1	-28.7	312	-205.5	-435	0	0	0	0	0	0	0	0	0	0	0	0	0	0	0	0	0	0	0	0	0
1651653925060	-676.856	305.976	667.584	-96.81	-67.69	-30.52	312	-205.5	-435	0	0	0	0	0	0	0	0	0	0	0	0	0	0	0	0	0	0	0	0	0
1651653925065	-687.104	329.888	668.56	-98.56	-72.17	-33.67	307.5	-205.5	-442.5	0	0	0	0	0	0	0	0	0	0	0	0	0	0	0	0	0	0	0	0	0
1651653925070	-685.152	347.456	671	-100.03	-76.02	-36.26	307.5	-205.5	-442.5	0	0	0	0	0	0	0	0	0	0	0	0	0	0	0	0	0	0	0	0	0
1651653925075	-684.176	360.144	661.24	-99.54	-76.72	-37.66	307.5	-204	-450	0	0	0	0	0	0	0	0	0	0	0	0	0	0	0	0	0	0	0	0	0
1651653925080	-683.2	355.752	652.944	-96.25	-75.46	-38.43	307.5	-204	-450	0	0	0	0	0	0	0	0	0	0	0	0	0	0	0	0	0	0	0	0	0
1651653925085	-658.8	339.648	646.6	-91.63	-73.78	-38.08	313.5	-201	-456	0	0	0	0	0	0	0	0	0	0	0	0	0	0	0	0	0	0	0	0	0
1651653925090	-646.112	321.592	643.184	-85.47	-72.1	-36.96	313.5	-201	-456	0	0	0	0	0	0	0	0	0	0	0	0	0	0	0	0	0	0	0	0	0
1651653925095	-615.856	295.24	653.432	-77.98	-69.72	-34.79	312	-195	-465	0	0	0	0	0	0	0	0	0	0	0	0	0	0	0	0	0	0	0	0	0
1651653925100	-623.176	295.728	674.416	-69.23	-65.1	-32.62	312	-195	-465	0	0	0	0	0	0	0	0	0	0	0	0	0	0	0	0	0	0	0	0	0
1651653925105	-635.864	297.192	712.968	-61.18	-59.71	-29.4	312	-186	-471	0	0	0	0	0	0	0	0	0	0	0	0	0	0	0	0	0	0	0	0	0
1651653925110	-649.04	297.68	741.76	-54.74	-53.27	-26.46	312	-186	-471	0	0	0	0	0	0	0	0	0	0	0	0	0	0	0	0	0	0	0	0	0
1651653925115	-650.016	284.016	759.328	-49.42	-47.6	-24.36	312	-180	-465	0	0	0	0	0	0	0	0	0	0	0	0	0	0	0	0	0	0	0	0	0
1651653925120	-645.136	272.792	761.768	-44.8	-43.96	-23.31	312	-180	-465	0	0	0	0	0	0	0	0	0	0	0	0	0	0	0	0	0	0	0	0	0
1651653925125	-649.528	257.664	774.944	-41.16	-41.37	-21.77	306	-178.5	-465	0	0	0	0	0	0	0	0	0	0	0	0	0	0	0	0	0	0	0	0	0
1651653925130	-641.232	248.392	781.288	-38.5	-40.11	-21.49	306	-178.5	-465	0	0	0	0	0	0	0	0	0	0	0	0	0	0	0	0	0	0	0	0	0
1651653925135	-630.496	235.216	783.24	-37.17	-38.08	-20.3	298.5	-177	-475.5	0	0	0	0	0	0	0	0	0	0	0	0	0	0	0	0	0	0	0	0	0
1651653925140	-615.368	233.264	784.216	-36.61	-35.98	-18.83	298.5	-177	-475.5	0	0	0	0	0	0	0	0	0	0	0	0	0	0	0	0	0	0	0	0	0
1651653925145	-607.072	212.768	787.632	-36.75	-34.02	-17.15	303	-175.5	-486	0	0	0	0	0	0	0	0	0	0	0	0	0	0	0	0	0	0	0	0	0
1651653925150	-610	204.96	786.168	-36.26	-33.18	-16.1	303	-175.5	-486	0	0	0	0	0	0	0	0	0	0	0	0	0	0	0	0	0	0	0	0	0
1651653925155	-611.464	210.328	778.848	-35	-33.25	-15.33	306	-172.5	-486	0	0	0	0	0	0	0	0	0	0	0	0	0	0	0	0	0	0	0	0	0
1651653925157	-610	218.136	777.872	-33.81	-31.57	-14.14	306	-172.5	-486	0	0	0	0	0	0	0	0	0	0	0	0	0	0	0	0	0	0	0	0	0
1651653925162	-594.384	222.04	778.36	-32.13	-28.35	-12.46	304.5	-175.5	-487.5	0	0	0	0	0	0	0	0	0	0	0	0	0	0	0	0	0	0	0	0	0
1651653925167	-591.456	225.456	774.456	-29.61	-24.85	-10.29	304.5	-175.5	-487.5	0	0	0	0	0	0	0	0	0	0	0	0	0	0	0	0	0	0	0	0	0
1651653925172	-596.824	223.992	771.528	-27.16	-21.7	-8.54	304.5	-175.5	-487.5	0	0	0	0	0	0	0	0	0	0	0	0	0	0	0	0	0	0	0	0	0
1651653925177	-594.384	218.136	765.184	-24.85	-20.09	-7.42	300	-175.5	-487.5	0	0	0	0	0	0	0	0	0	0	0	0	0	0	0	0	0	0	0	0	0
1651653925182	-589.992	222.04	761.768	-22.47	-20.37	-6.51	300	-175.5	-487.5	0	0	0	0	0	0	0	0	0	0	0	0	0	0	0	0	0	0	0	0	0
1651653925187	-594.872	223.992	771.04	-21.28	-22.26	-6.44	300	-163.5	-486	0	0	0	0	0	0	0	0	0	0	0	0	0	0	0	0	0	0	0	0	0
1651653925192	-603.168	223.016	778.848	-21.14	-24.01	-6.44	300	-163.5	-486	0	0	0	0	0	0	0	0	0	0	0	0	0	0	0	0	0	0	0	0	0
1651653925197	-600.24	225.944	782.264	-20.65	-25.2	-6.86	304.5	-169.5	-487.5	0	0	0	0	0	0	0	0	0	0	0	0	0	0	0	0	0	0	0	0	0
1651653925202	-591.944	222.04	783.728	-19.32	-24.78	-7	304.5	-169.5	-487.5	0	0	0	0	0	0	0	0	0	0	0	0	0	0	0	0	0	0	0	0	0
1651653925207	-598.776	219.112	793.488	-17.43	-24.15	-7.21	303	-174	-490.5	0	0	0	0	0	0	0	0	0	0	0	0	0	0	0	0	0	0	0	0	0
1651653925212	-605.608	213.256	804.712	-16.1	-22.68	-7.42	303	-174	-490.5	0	0	0	0	0	0	0	0	0	0	0	0	0	0	0	0	0	0	0	0	0
1651653925217	-610	212.28	814.472	-15.47	-21.07	-7.63	303	-168	-495	0	0	0	0	0	0	0	0	0	0	0	0	0	0	0	0	0	0	0	0	0
1651653925222	-605.12	197.152	818.864	-15.75	-20.23	-8.4	303	-168	-495	0	0	0	0	0	0	0	0	0	0	0	0	0	0	0	0	0	0	0	0	0
1651653925227	-599.752	190.808	810.568	-16.31	-20.09	-9.38	298.5	-163.5	-495	0	0	0	0	0	0	0	0	0	0	0	0	0	0	0	0	0	0	0	0	0
1651653925232	-596.336	179.096	796.416	-16.87	-21.98	-10.78	298.5	-163.5	-495	0	0	0	0	0	0	0	0	0	0	0	0	0	0	0	0	0	0	0	0	0
1651653925237	-585.112	181.048	783.728	-16.52	-24.64	-11.83	298.5	-166.5	-499.5	0	0	0	0	0	0	0	0	0	0	0	0	0	0	0	0	0	0	0	0	0
1651653925242	-576.328	177.632	786.168	-15.96	-26.6	-12.81	298.5	-166.5	-499.5	0	0	0	0	0	0	0	0	0	0	0	0	0	0	0	0	0	0	0	0	0
1651653925247	-585.112	175.192	784.216	-14.21	-28.21	-13.58	297	-166.5	-499.5	0	0	0	0	0	0	0	0	0	0	0	0	0	0	0	0	0	0	0	0	0
1651653925252	-575.352	182.024	804.224	-13.16	-28.42	-14	297	-166.5	-499.5	0	0	0	0	0	0	0	0	0	0	0	0	0	0	0	0	0	0	0	0	0
1651653925257	-576.816	191.784	799.832	-11.97	-26.88	-13.44	298.5	-165	-501	0	0	0	0	0	0	0	0	0	0	0	0	0	0	0	0	0	0	0	0	0
1651653925262	-572.424	188.856	805.2	-10.92	-24.01	-10.85	298.5	-165	-501	0	0	0	0	0	0	0	0	0	0	0	0	0	0	0	0	0	0	0	0	0
1651653925267	-563.64	176.656	805.2	-11.41	-20.09	-9.1	298.5	-163.5	-501	0	0	0	0	0	0	0	0	0	0	0	0	0	0	0	0	0	0	0	0	0
1651653925272	-555.832	166.896	801.296	-11.27	-18.27	-7.63	298.5	-163.5	-501	0	0	0	0	0	0	0	0	0	0	0	0	0	0	0	0	0	0	0	0	0
1651653925277	-552.904	164.456	794.952	-10.71	-17.08	-6.09	294	-160.5	-502.5	0	0	0	0	0	0	0	0	0	0	0	0	0	0	0	0	0	0	0	0	0
1651653925282	-564.616	157.624	802.76	-9.73	-16.31	-5.18	294	-160.5	-502.5	0	0	0	0	0	0	0	0	0	0	0	0	0	0	0	0	0	0	0	0	0
1651653925287	-564.128	156.648	814.472	-9.17	-15.68	-4.69	298.5	-157.5	-505.5	0	0	0	0	0	0	0	0	0	0	0	0	0	0	0	0	0	0	0	0	0
1651653925292	-568.52	163.48	822.28	-8.54	-13.72	-3.57	298.5	-157.5	-505.5	0	0	0	0	0	0	0	0	0	0	0	0	0	0	0	0	0	0	0	0	0
1651653925294	-568.032	175.192	826.672	-7.56	-10.36	-2.38	300	-159	-505.5	0	0	0	0	0	0	0	0	0	0	0	0	0	0	0	0	0	0	0	0	0
1651653925299	-583.16	181.048	821.792	-7.28	-7.42	-1.54	300	-159	-505.5	0	0	0	0	0	0	0	0	0	0	0	0	0	0	0	0	0	0	0	0	0
1651653925304	-590.48	186.904	819.84	-7.07	-6.16	-1.68	297	-159	-508.5	0	0	0	0	0	0	0	0	0	0	0	0	0	0	0	0	0	0	0	0	0
1651653925309	-592.92	190.32	810.08	-7	-6.3	-2.52	297	-159	-508.5	0	0	0	0	0	0	0	0	0	0	0	0	0	0	0	0	0	0	0	0	0
1651653925314	-590.968	196.176	798.368	-6.72	-6.86	-3.36	291	-160.5	-510	0	0	0	0	0	0	0	0	0	0	0	0	0	0	0	0	0	0	0	0	0
1651653925319	-586.576	187.88	794.952	-6.65	-7.49	-4.34	291	-160.5	-510	0	0	0	0	0	0	0	0	0	0	0	0	0	0	0	0	0	0	0	0	0
1651653925324	-575.352	190.32	789.096	-6.23	-8.47	-5.04	289.5	-160.5	-505.5	0	0	0	0	0	0	0	0	0	0	0	0	0	0	0	0	0	0	0	0	0
1651653925329	-569.008	191.784	791.536	-5.74	-9.31	-5.46	289.5	-160.5	-505.5	0	0	0	0	0	0	0	0	0	0	0	0	0	0	0	0	0	0	0	0	0
1651653925334	-572.912	181.536	795.44	-4.76	-10.36	-5.53	292.5	-160.5	-505.5	0	0	0	0	0	0	0	0	0	0	0	0	0	0	0	0	0	0	0	0	0
1651653925339	-574.376	171.288	793.976	-3.71	-11.06	-5.81	292.5	-160.5	-505.5	0	0	0	0	0	0	0	0	0	0	0	0	0	0	0	0	0	0	0	0	0
1651653925344	-560.224	171.776	791.536	-2.03	-11.69	-5.67	292.5	-160.5	-505.5	0	0	0	0	0	0	0	0	0	0	0	0	0	0	0	0	0	0	0	0	0
1651653925349	-562.664	163.48	799.832	0.91	-11.97	-4.76	292.5	-160.5	-505.5	0	0	0	0	0	0	0	0	0	0	0	0	0	0	0	0	0	0	0	0	0
1651653925354	-561.688	155.672	799.344	2.87	-11.97	-4.2	298.5	-156	-505.5	0	0	0	0	0	0	0	0	0	0	0	0	0	0	0	0	0	0	0	0	0
1651653925359	-552.416	156.16	803.736	4.2	-12.46	-4.2	298.5	-156	-505.5	0	0	0	0	0	0	0	0	0	0	0	0	0	0	0	0	0	0	0	0	0
1651653925364	-549.976	149.328	805.2	4.97	-12.88	-4.13	292.5	-151.5	-510	0	0	0	0	0	0	0	0	0	0	0	0	0	0	0	0	0	0	0	0	0
1651653925369	-553.88	156.16	802.272	5.39	-14.28	-4.62	292.5	-151.5	-510	0	0	0	0	0	0	0	0	0	0	0	0	0	0	0	0	0	0	0	0	0
1651653925374	-559.736	146.4	799.344	4.69	-17.22	-5.95	292.5	-151.5	-510	0	0	0	0	0	0	0	0	0	0	0	0	0	0	0	0	0	0	0	0	0
1651653925379	-546.072	140.544	795.44	4.76	-20.65	-7	288	-154.5	-513	0	0	0	0	0	0	0	0	0	0	0	0	0	0	0	0	0	0	0	0	0
1651653925384	-544.12	123.464	789.096	5.18	-23.24	-8.05	288	-154.5	-513	0	0	0	0	0	0	0	0	0	0	0	0	0	0	0	0	0	0	0	0	0
1651653925389	-539.728	148.352	811.056	5.74	-27.02	-8.75	291	-157.5	-514.5	0	0	0	0	0	0	0	0	0	0	0	0	0	0	0	0	0	0	0	0	0
1651653925394	-535.336	142.496	819.84	3.43	-29.54	-8.82	291	-157.5	-514.5	0	0	0	0	0	0	0	0	0	0	0	0	0	0	0	0	0	0	0	0	0
1651653925399	-534.36	150.304	822.28	1.82	-31.22	-8.4	292.5	-156	-516	0	0	0	0	0	0	0	0	0	0	0	0	0	0	0	0	0	0	0	0	0
1651653925404	-538.752	155.184	833.992	-0.07	-30.94	-7.49	292.5	-156	-516	0	0	0	0	0	0	0	0	0	0	0	0	0	0	0	0	0	0	0	0	0
1651653925409	-549	161.528	849.608	-0.49	-30.31	-6.02	292.5	-153	-517.5	0	0	0	0	0	0	0	0	0	0	0	0	0	0	0	0	0	0	0	0	0
1651653925414	-550.464	173.728	853.024	-2.17	-28.63	-5.32	292.5	-153	-517.5	0	0	0	0	0	0	0	0	0	0	0	0	0	0	0	0	0	0	0	0	0
1651653925419	-557.784	169.336	851.072	-2.87	-26.11	-4.76	292.5	-150	-520.5	0	0	0	0	0	0	0	0	0	0	0	0	0	0	0	0	0	0	0	0	0
1651653925424	-559.248	173.24	845.704	-1.89	-23.73	-4.76	292.5	-150	-520.5	0	0	0	0	0	0	0	0	0	0	0	0	0	0	0	0	0	0	0	0	0
1651653925429	-554.856	185.928	839.36	-0.7	-21.49	-4.62	288	-150	-526.5	0	0	0	0	0	0	0	0	0	0	0	0	0	0	0	0	0	0	0	0	0
1651653925431	-549	182.024	832.528	-1.54	-19.11	-4.34	288	-150	-526.5	0	0	0	0	0	0	0	0	0	0	0	0	0	0	0	0	0	0	0	0	0
1651653925436	-543.632	180.56	822.28	-1.75	-17.78	-4.41	288	-151.5	-516	0	0	0	0	0	0	0	0	0	0	0	0	0	0	0	0	0	0	0	0	0
1651653925441	-542.168	175.192	814.472	-1.26	-17.78	-4.62	288	-151.5	-516	0	0	0	0	0	0	0	0	0	0	0	0	0	0	0	0	0	0	0	0	0
1651653925446	-532.408	179.096	807.152	-0.84	-18.55	-4.9	289.5	-154.5	-517.5	0	0	0	0	0	0	0	0	0	0	0	0	0	0	0	0	0	0	0	0	0
1651653925451	-533.872	173.24	813.984	-0.98	-19.46	-5.53	289.5	-154.5	-517.5	0	0	0	0	0	0	0	0	0	0	0	0	0	0	0	0	0	0	0	0	0
1651653925456	-531.92	183.488	807.64	0.14	-19.88	-5.81	282	-157.5	-526.5	0	0	0	0	0	0	0	0	0	0	0	0	0	0	0	0	0	0	0	0	0
1651653925461	-533.384	179.096	812.52	0.63	-20.3	-6.3	282	-157.5	-526.5	0	0	0	0	0	0	0	0	0	0	0	0	0	0	0	0	0	0	0	0	0
1651653925466	-529.48	176.656	818.376	0.77	-21.21	-7.07	280.5	-160.5	-525	0	0	0	0	0	0	0	0	0	0	0	0	0	0	0	0	0	0	0	0	0
1651653925471	-540.704	172.264	831.552	0.21	-23.17	-8.89	280.5	-160.5	-525	0	0	0	0	0	0	0	0	0	0	0	0	0	0	0	0	0	0	0	0	0
1651653925476	-537.288	168.848	830.576	-0.14	-26.18	-10.22	283.5	-159	-528	0	0	0	0	0	0	0	0	0	0	0	0	0	0	0	0	0	0	0	0	0
1651653925481	-533.872	166.408	839.848	-1.89	-29.75	-11.55	283.5	-159	-528	0	0	0	0	0	0	0	0	0	0	0	0	0	0	0	0	0	0	0	0	0
1651653925486	-532.408	158.6	842.776	-2.94	-32.97	-12.81	285	-159	-534	0	0	0	0	0	0	0	0	0	0	0	0	0	0	0	0	0	0	0	0	0
1651653925491	-537.288	166.896	851.56	-4.62	-34.51	-13.93	285	-159	-534	0	0	0	0	0	0	0	0	0	0	0	0	0	0	0	0	0	0	0	0	0
1651653925496	-538.752	160.552	851.56	-5.53	-35.21	-14.28	283.5	-154.5	-537	0	0	0	0	0	0	0	0	0	0	0	0	0	0	0	0	0	0	0	0	0
1651653925501	-526.064	170.8	849.608	-7.14	-35.42	-15.54	283.5	-154.5	-537	0	0	0	0	0	0	0	0	0	0	0	0	0	0	0	0	0	0	0	0	0
1651653925506	-518.744	159.576	852.536	-7.42	-36.12	-15.12	279	-150	-537	0	0	0	0	0	0	0	0	0	0	0	0	0	0	0	0	0	0	0	0	0
1651653925511	-524.112	161.528	838.872	-10.78	-37.94	-16.94	279	-150	-537	0	0	0	0	0	0	0	0	0	0	0	0	0	0	0	0	0	0	0	0	0
1651653925516	-515.328	165.92	843.752	-10.57	-42.35	-18.48	276	-151.5	-537	0	0	0	0	0	0	0	0	0	0	0	0	0	0	0	0	0	0	0	0	0
1651653925521	-526.064	174.704	836.432	-9.31	-43.54	-18.83	276	-151.5	-537	0	0	0	0	0	0	0	0	0	0	0	0	0	0	0	0	0	0	0	0	0
1651653925526	-544.608	144.448	867.664	-9.03	-40.88	-19.74	277.5	-150	-540	0	0	0	0	0	0	0	0	0	0	0	0	0	0	0	0	0	0	0	0	0
1651653925531	-549.976	137.616	895.968	-14.42	-34.65	-23.87	277.5	-150	-540	0	0	0	0	0	0	0	0	0	0	0	0	0	0	0	0	0	0	0	0	0
1651653925536	-493.856	170.312	846.192	-11.55	-29.05	-24.15	282	-147	-544.5	0	0	0	0	0	0	0	0	0	0	0	0	0	0	0	0	0	0	0	0	0
1651653925541	-467.016	224.48	864.248	-6.51	-22.4	-19.39	282	-147	-544.5	0	0	0	0	0	0	0	0	0	0	0	0	0	0	0	0	0	0	0	0	0
1651653925546	-464.576	209.84	861.32	-6.65	-16.73	-9.66	279	-144	-547.5	0	0	0	0	0	0	0	0	0	0	0	0	0	0	0	0	0	0	0	0	0
1651653925551	-488.976	146.4	853.024	-7.07	-11.41	-5.39	279	-144	-547.5	0	0	0	0	0	0	0	0	0	0	0	0	0	0	0	0	0	0	0	0	0
1651653925556	-487.024	140.056	868.64	-4.83	-10.78	-4.55	277.5	-145.5	-549	0	0	0	0	0	0	0	0	0	0	0	0	0	0	0	0	0	0	0	0	0
1651653925561	-492.392	140.544	882.792	-6.58	-12.04	-4.97	277.5	-145.5	-549	0	0	0	0	0	0	0	0	0	0	0	0	0	0	0	0	0	0	0	0	0
1651653925566	-495.808	134.688	878.4	-8.75	-14.42	-5.53	277.5	-142.5	-549	0	0	0	0	0	0	0	0	0	0	0	0	0	0	0	0	0	0	0	0	0
1651653925567	-487.512	140.544	878.4	-9.87	-15.47	-5.18	277.5	-142.5	-549	0	0	0	0	0	0	0	0	0	0	0	0	0	0	0	0	0	0	0	0	0
1651653925572	-482.144	144.448	879.376	-10.78	-14.7	-4.13	277.5	-142.5	-549	0	0	0	0	0	0	0	0	0	0	0	0	0	0	0	0	0	0	0	0	0
1651653925577	-485.56	135.664	877.912	-10.71	-13.86	-2.8	274.5	-142.5	-549	0	0	0	0	0	0	0	0	0	0	0	0	0	0	0	0	0	0	0	0	0
1651653925582	-489.464	138.104	874.984	-10.78	-13.72	-2.31	274.5	-142.5	-549	0	0	0	0	0	0	0	0	0	0	0	0	0	0	0	0	0	0	0	0	0
1651653925587	-491.904	141.52	869.128	-10.85	-13.79	-1.96	276	-144	-547.5	0	0	0	0	0	0	0	0	0	0	0	0	0	0	0	0	0	0	0	0	0
1651653925592	-488	147.376	860.832	-10.5	-13.93	-1.68	276	-144	-547.5	0	0	0	0	0	0	0	0	0	0	0	0	0	0	0	0	0	0	0	0	0
1651653925597	-493.856	148.84	856.928	-10.22	-13.09	-1.4	274.5	-145.5	-549	0	0	0	0	0	0	0	0	0	0	0	0	0	0	0	0	0	0	0	0	0
1651653925602	-498.248	154.208	857.416	-9.66	-12.39	-1.89	274.5	-145.5	-549	0	0	0	0	0	0	0	0	0	0	0	0	0	0	0	0	0	0	0	0	0
1651653925607	-508.496	163.48	855.464	-8.82	-12.32	-1.96	270	-142.5	-546	0	0	0	0	0	0	0	0	0	0	0	0	0	0	0	0	0	0	0	0	0
1651653925612	-510.936	160.552	855.952	-8.75	-12.04	-2.45	270	-142.5	-546	0	0	0	0	0	0	0	0	0	0	0	0	0	0	0	0	0	0	0	0	0
1651653925617	-499.712	157.136	849.12	-7.7	-11.69	-2.87	274.5	-138	-547.5	0	0	0	0	0	0	0	0	0	0	0	0	0	0	0	0	0	0	0	0	0
1651653925622	-487.024	156.16	846.68	-6.65	-10.15	-2.45	274.5	-138	-547.5	0	0	0	0	0	0	0	0	0	0	0	0	0	0	0	0	0	0	0	0	0
1651653925627	-481.656	143.96	841.8	-5.88	-8.19	-1.96	273	-136.5	-549	0	0	0	0	0	0	0	0	0	0	0	0	0	0	0	0	0	0	0	0	0
1651653925632	-483.12	146.4	838.384	-3.36	-7.49	-1.19	273	-136.5	-549	0	0	0	0	0	0	0	0	0	0	0	0	0	0	0	0	0	0	0	0	0
1651653925637	-484.584	150.304	837.896	-1.75	-7.56	-0.49	271.5	-141	-555	0	0	0	0	0	0	0	0	0	0	0	0	0	0	0	0	0	0	0	0	0
1651653925642	-488.976	149.816	843.264	-0.07	-7.91	0.07	271.5	-141	-555	0	0	0	0	0	0	0	0	0	0	0	0	0	0	0	0	0	0	0	0	0
1651653925647	-494.832	150.304	848.632	1.82	-7.91	0	268.5	-139.5	-556.5	0	0	0	0	0	0	0	0	0	0	0	0	0	0	0	0	0	0	0	0	0
1651653925652	-491.904	147.864	859.368	3.29	-6.86	0.42	268.5	-139.5	-556.5	0	0	0	0	0	0	0	0	0	0	0	0	0	0	0	0	0	0	0	0	0
1651653925657	-488.976	142.984	874.008	4.48	-4.97	0.98	271.5	-138	-553.5	0	0	0	0	0	0	0	0	0	0	0	0	0	0	0	0	0	0	0	0	0
1651653925662	-492.88	140.056	892.064	5.46	-3.29	1.82	271.5	-138	-553.5	0	0	0	0	0	0	0	0	0	0	0	0	0	0	0	0	0	0	0	0	0
1651653925667	-494.344	134.2	904.264	4.97	-2.1	2.38	271.5	-141	-552	0	0	0	0	0	0	0	0	0	0	0	0	0	0	0	0	0	0	0	0	0
1651653925672	-496.296	126.392	914.512	3.64	-1.61	2.59	271.5	-141	-552	0	0	0	0	0	0	0	0	0	0	0	0	0	0	0	0	0	0	0	0	0
1651653925677	-492.88	118.584	919.392	0.98	-1.61	2.59	267	-139.5	-550.5	0	0	0	0	0	0	0	0	0	0	0	0	0	0	0	0	0	0	0	0	0
1651653925682	-488.488	119.072	922.808	-1.12	-2.59	2.52	267	-139.5	-550.5	0	0	0	0	0	0	0	0	0	0	0	0	0	0	0	0	0	0	0	0	0
1651653925687	-493.856	114.192	919.88	-3.64	-4.06	1.96	271.5	-141	-550.5	0	0	0	0	0	0	0	0	0	0	0	0	0	0	0	0	0	0	0	0	0
1651653925692	-498.248	128.344	914.024	-6.02	-6.23	1.47	271.5	-141	-550.5	0	0	0	0	0	0	0	0	0	0	0	0	0	0	0	0	0	0	0	0	0
1651653925697	-502.64	126.88	911.096	-7.84	-7.98	0.84	274.5	-141	-555	0	0	0	0	0	0	0	0	0	0	0	0	0	0	0	0	0	0	0	0	0
1651653925702	-501.176	129.32	906.216	-8.75	-8.75	0.56	274.5	-141	-555	0	0	0	0	0	0	0	0	0	0	0	0	0	0	0	0	0	0	0	0	0
1651653925704	-495.808	128.344	911.096	-9.38	-7.42	0.56	280.5	-139.5	-555	0	0	0	0	0	0	0	0	0	0	0	0	0	0	0	0	0	0	0	0	0
1651653925709	-494.344	130.784	912.072	-9.94	-4.83	0.56	280.5	-139.5	-555	0	0	0	0	0	0	0	0	0	0	0	0	0	0	0	0	0	0	0	0	0
1651653925714	-503.616	136.152	914.512	-10.36	-3.29	0.49	276	-139.5	-552	0	0	0	0	0	0	0	0	0	0	0	0	0	0	0	0	0	0	0	0	0
1651653925719	-506.056	136.64	906.704	-10.92	-3.5	0.07	276	-139.5	-552	0	0	0	0	0	0	0	0	0	0	0	0	0	0	0	0	0	0	0	0	0
1651653925724	-501.664	138.592	904.264	-11.55	-4.34	-0.91	273	-144	-550.5	0	0	0	0	0	0	0	0	0	0	0	0	0	0	0	0	0	0	0	0	0
1651653925729	-496.784	132.248	894.992	-12.18	-5.18	-1.4	273	-144	-550.5	0	0	0	0	0	0	0	0	0	0	0	0	0	0	0	0	0	0	0	0	0
1651653925734	-508.496	126.88	892.552	-12.25	-5.74	-0.84	271.5	-138	-552	0	0	0	0	0	0	0	0	0	0	0	0	0	0	0	0	0	0	0	0	0
1651653925739	-483.12	134.688	899.384	-12.46	-5.6	-1.26	271.5	-138	-552	0	0	0	0	0	0	0	0	0	0	0	0	0	0	0	0	0	0	0	0	0
1651653925744	-484.096	121.024	894.992	-13.02	-4.83	-1.26	262.5	-139.5	-552	0	0	0	0	0	0	0	0	0	0	0	0	0	0	0	0	0	0	0	0	0
1651653925749	-487.024	126.88	894.504	-12.46	-4.34	-0.56	262.5	-139.5	-552	0	0	0	0	0	0	0	0	0	0	0	0	0	0	0	0	0	0	0	0	0
1651653925754	-482.144	121.024	889.624	-12.11	-3.71	0.28	267	-148.5	-550.5	0	0	0	0	0	0	0	0	0	0	0	0	0	0	0	0	0	0	0	0	0
1651653925759	-478.728	125.904	885.72	-10.92	-2.94	0.56	267	-148.5	-550.5	0	0	0	0	0	0	0	0	0	0	0	0	0	0	0	0	0	0	0	0	0
1651653925764	-485.072	125.416	885.232	-9.45	-1.54	0.56	277.5	-145.5	-553.5	0	0	0	0	0	0	0	0	0	0	0	0	0	0	0	0	0	0	0	0	0
1651653925769	-490.928	128.832	888.16	-7.56	1.4	1.19	277.5	-145.5	-553.5	0	0	0	0	0	0	0	0	0	0	0	0	0	0	0	0	0	0	0	0	0
1651653925774	-494.344	135.176	887.672	-5.11	4.41	2.17	277.5	-145.5	-553.5	0	0	0	0	0	0	0	0	0	0	0	0	0	0	0	0	0	0	0	0	0
1651653925779	-491.904	146.888	886.208	-2.87	7.07	2.45	274.5	-138	-553.5	0	0	0	0	0	0	0	0	0	0	0	0	0	0	0	0	0	0	0	0	0
1651653925784	-504.592	155.672	877.912	-0.7	9.38	2.52	274.5	-138	-553.5	0	0	0	0	0	0	0	0	0	0	0	0	0	0	0	0	0	0	0	0	0
1651653925789	-508.984	162.992	868.64	1.82	10.78	2.24	268.5	-136.5	-550.5	0	0	0	0	0	0	0	0	0	0	0	0	0	0	0	0	0	0	0	0	0
1651653925794	-515.328	170.312	864.248	3.78	12.81	1.54	268.5	-136.5	-550.5	0	0	0	0	0	0	0	0	0	0	0	0	0	0	0	0	0	0	0	0	0
1651653925799	-520.696	171.288	866.2	5.46	16.87	0.77	270	-138	-550.5	0	0	0	0	0	0	0	0	0	0	0	0	0	0	0	0	0	0	0	0	0
1651653925804	-521.672	185.928	870.592	8.12	22.12	0.63	270	-138	-550.5	0	0	0	0	0	0	0	0	0	0	0	0	0	0	0	0	0	0	0	0	0
1651653925809	-525.088	190.32	867.664	10.64	29.47	1.12	274.5	-138	-552	0	0	0	0	0	0	0	0	0	0	0	0	0	0	0	0	0	0	0	0	0
1651653925814	-522.648	186.904	859.856	14.63	38.71	1.61	274.5	-138	-552	0	0	0	0	0	0	0	0	0	0	0	0	0	0	0	0	0	0	0	0	0
1651653925819	-521.672	190.808	876.448	19.32	49.42	2.52	274.5	-136.5	-553.5	0	0	0	0	0	0	0	0	0	0	0	0	0	0	0	0	0	0	0	0	0
1651653925824	-506.544	183	873.032	22.96	59.92	3.92	274.5	-136.5	-553.5	0	0	0	0	0	0	0	0	0	0	0	0	0	0	0	0	0	0	0	0	0
1651653925829	-504.592	174.216	849.608	28.42	71.75	7.14	277.5	-141	-550.5	0	0	0	0	0	0	0	0	0	0	0	0	0	0	0	0	0	0	0	0	0
1651653925834	-510.448	177.632	852.536	34.37	81.06	9.38	277.5	-141	-550.5	0	0	0	0	0	0	0	0	0	0	0	0	0	0	0	0	0	0	0	0	0
1651653925839	-485.56	157.624	862.784	38.64	87.99	12.67	285	-142.5	-543	0	0	0	0	0	0	0	0	0	0	0	0	0	0	0	0	0	0	0	0	0
1651653925841	-494.832	167.872	846.68	41.44	96.39	15.96	285	-142.5	-543	0	0	0	0	0	0	0	0	0	0	0	0	0	0	0	0	0	0	0	0	0
1651653925846	-499.712	178.608	827.16	44.8	98.07	18.76	283.5	-142.5	-535.5	0	0	0	0	0	0	0	0	0	0	0	0	0	0	0	0	0	0	0	0	0
1651653925851	-509.96	190.32	815.936	47.25	99.33	20.93	283.5	-142.5	-535.5	0	0	0	0	0	0	0	0	0	0	0	0	0	0	0	0	0	0	0	0	0
1651653925856	-463.112	165.432	833.992	53.97	95.97	19.6	285	-148.5	-526.5	0	0	0	0	0	0	0	0	0	0	0	0	0	0	0	0	0	0	0	0	0
1651653925861	-641.72	227.896	804.224	54.95	100.17	20.16	285	-148.5	-526.5	0	0	0	0	0	0	0	0	0	0	0	0	0	0	0	0	0	0	0	0	0
1651653925866	-602.192	225.944	801.784	58.66	102.97	21.14	285	-151.5	-519	0	0	0	0	0	0	0	0	0	0	0	0	0	0	0	0	0	0	0	0	0
1651653925871	-597.8	229.848	797.392	67.55	106.05	21.91	285	-151.5	-519	0	0	0	0	0	0	0	0	0	0	0	0	0	0	0	0	0	0	0	0	0
1651653925876	-592.432	242.536	769.088	81.41	114.31	23.87	288	-156	-514.5	0	0	0	0	0	0	0	0	0	0	0	0	0	0	0	0	0	0	0	0	0
1651653925881	-572.912	212.768	772.016	99.47	128.66	26.39	288	-156	-514.5	0	0	0	0	0	0	0	0	0	0	0	0	0	0	0	0	0	0	0	0	0
1651653925886	-598.776	250.344	787.144	118.72	148.61	32.06	298.5	-154.5	-508.5	0	0	0	0	0	0	0	0	0	0	0	0	0	0	0	0	0	0	0	0	0
1651653925891	-565.592	234.24	814.472	130.83	168.84	40.81	298.5	-154.5	-508.5	0	0	0	0	0	0	0	0	0	0	0	0	0	0	0	0	0	0	0	0	0
1651653925896	-565.592	194.712	801.296	141.05	184.52	48.09	300	-156	-496.5	0	0	0	0	0	0	0	0	0	0	0	0	0	0	0	0	0	0	0	0	0
1651653925901	-564.128	172.264	804.712	150.64	194.81	53.83	300	-156	-496.5	0	0	0	0	0	0	0	0	0	0	0	0	0	0	0	0	0	0	0	0	0
1651653925906	-584.136	160.064	811.056	155.12	198.87	56.77	303	-162	-483	0	0	0	0	0	0	0	0	0	0	0	0	0	0	0	0	0	0	0	0	0
1651653925911	-596.824	149.328	804.224	155.61	196.7	58.8	303	-162	-483	0	0	0	0	0	0	0	0	0	0	0	0	0	0	0	0	0	0	0	0	0
1651653925916	-617.32	160.064	805.688	151.62	188.65	58.31	309	-172.5	-468	0	0	0	0	0	0	0	0	0	0	0	0	0	0	0	0	0	0	0	0	0
1651653925921	-647.088	179.584	814.472	142.94	177.24	56.49	309	-172.5	-468	0	0	0	0	0	0	0	0	0	0	0	0	0	0	0	0	0	0	0	0	0
1651653925926	-651.48	184.952	820.328	131.04	162.75	54.25	313.5	-183	-453	0	0	0	0	0	0	0	0	0	0	0	0	0	0	0	0	0	0	0	0	0
1651653925931	-690.032	219.6	812.52	115.29	147.35	45.78	313.5	-183	-453	0	0	0	0	0	0	0	0	0	0	0	0	0	0	0	0	0	0	0	0	0
1651653925936	-716.384	246.44	809.104	99.4	133.63	38.71	318	-184.5	-445.5	0	0	0	0	0	0	0	0	0	0	0	0	0	0	0	0	0	0	0	0	0
1651653925941	-752.008	279.136	782.752	84.07	120.61	32.97	318	-184.5	-445.5	0	0	0	0	0	0	0	0	0	0	0	0	0	0	0	0	0	0	0	0	0
1651653925946	-752.496	296.216	744.2	69.23	109.27	25.2	321	-190.5	-429	0	0	0	0	0	0	0	0	0	0	0	0	0	0	0	0	0	0	0	0	0
1651653925951	-818.376	336.72	693.448	56.49	97.16	16.31	321	-190.5	-429	0	0	0	0	0	0	0	0	0	0	0	0	0	0	0	0	0	0	0	0	0
1651653925956	-884.256	363.56	661.728	46.62	80.22	14.35	319.5	-195	-412.5	0	0	0	0	0	0	0	0	0	0	0	0	0	0	0	0	0	0	0	0	0
1651653925961	-940.376	430.904	601.704	36.82	49.91	-0.07	319.5	-195	-412.5	0	0	0	0	0	0	0	0	0	0	0	0	0	0	0	0	0	0	0	0	0
1651653925966	-751.52	477.752	532.408	27.37	20.86	-11.69	319.5	-196.5	-412.5	0	0	0	0	0	0	0	0	0	0	0	0	0	0	0	0	0	0	0	0	0
1651653925971	-800.808	660.264	428.952	28.63	27.79	18.55	319.5	-196.5	-412.5	0	0	0	0	0	0	0	0	0	0	0	0	0	0	0	0	0	0	0	0	0
1651653925976	-310.856	227.896	622.2	37.03	66.85	6.09	319.5	-196.5	-412.5	0	0	0	0	0	0	0	0	0	0	0	0	0	0	0	0	0	0	0	0	0
1651653925977	-645.624	334.28	444.08	45.57	90.58	4.41	321	-199.5	-412.5	0	0	0	0	0	0	0	0	0	0	0	0	0	0	0	0	0	0	0	0	0
1651653925982	-778.848	325.008	448.96	54.95	79.94	7.42	321	-199.5	-412.5	0	0	0	0	0	0	0	0	0	0	0	0	0	0	0	0	0	0	0	0	0
1651653925987	-693.936	160.552	446.52	55.16	48.65	5.39	325.5	-198	-403.5	0	0	0	0	0	0	0	0	0	0	0	0	0	0	0	0	0	0	0	0	0
1651653925992	-582.184	198.128	283.04	76.93	24.85	34.02	325.5	-198	-403.5	0	0	0	0	0	0	0	0	0	0	0	0	0	0	0	0	0	0	0	0	0
1651653925997	-576.328	267.912	523.136	76.16	10.36	20.72	330	-196.5	-396	0	0	0	0	0	0	0	0	0	0	0	0	0	0	0	0	0	0	0	0	0
1651653926002	-528.016	203.984	410.408	64.82	23.03	11.9	330	-196.5	-396	0	0	0	0	0	0	0	0	0	0	0	0	0	0	0	0	0	0	0	0	0
1651653926007	-843.752	440.664	745.664	71.4	41.23	14.35	327	-199.5	-394.5	0	0	0	0	0	0	0	0	0	0	0	0	0	0	0	0	0	0	0	0	0
1651653926012	-840.824	530.944	575.84	98.14	60.97	44.8	327	-199.5	-394.5	0	0	0	0	0	0	0	0	0	0	0	0	0	0	0	0	0	0	0	0	0
1651653926017	-838.872	508.008	690.52	59.92	59.43	59.92	327	-201	-393	0	0	0	0	0	0	0	0	0	0	0	0	0	0	0	0	0	0	0	0	0
1651653926022	-854	492.88	536.8	56.07	32.13	46.97	327	-201	-393	0	0	0	0	0	0	0	0	0	0	0	0	0	0	0	0	0	0	0	0	0
1651653926027	-846.192	501.664	611.464	44.52	9.31	26.81	333	-204	-387	0	0	0	0	0	0	0	0	0	0	0	0	0	0	0	0	0	0	0	0	0
1651653926032	-815.448	457.744	632.936	32.97	-7.56	8.54	333	-204	-387	0	0	0	0	0	0	0	0	0	0	0	0	0	0	0	0	0	0	0	0	0
1651653926037	-805.2	432.368	648.552	24.85	-19.67	-2.03	333	-210	-379.5	0	0	0	0	0	0	0	0	0	0	0	0	0	0	0	0	0	0	0	0	0
1651653926042	-827.16	428.464	684.664	14.63	-31.01	-7.21	333	-210	-379.5	0	0	0	0	0	0	0	0	0	0	0	0	0	0	0	0	0	0	0	0	0
1651653926047	-865.712	429.44	694.424	2.1	-39.9	-11.69	333	-213	-381	0	0	0	0	0	0	0	0	0	0	0	0	0	0	0	0	0	0	0	0	0
1651653926052	-874.496	424.56	696.864	-10.29	-49.7	-14.07	333	-213	-381	0	0	0	0	0	0	0	0	0	0	0	0	0	0	0	0	0	0	0	0	0
1651653926057	-830.088	448.472	693.448	-19.04	-58.38	-17.71	330	-210	-385.5	0	0	0	0	0	0	0	0	0	0	0	0	0	0	0	0	0	0	0	0	0
1651653926062	-815.448	487.024	696.376	-25.06	-58.1	-26.74	330	-210	-385.5	0	0	0	0	0	0	0	0	0	0	0	0	0	0	0	0	0	0	0	0	0
1651653926067	-802.272	453.352	699.792	-30.87	-51.17	-33.81	325.5	-207	-390	0	0	0	0	0	0	0	0	0	0	0	0	0	0	0	0	0	0	0	0	0
1651653926072	-768.112	400.648	644.648	-35.49	-45.78	-33.18	325.5	-207	-390	0	0	0	0	0	0	0	0	0	0	0	0	0	0	0	0	0	0	0	0	0
1651653926077	-717.848	364.536	589.504	-34.65	-48.02	-29.4	321	-202.5	-396	0	0	0	0	0	0	0	0	0	0	0	0	0	0	0	0	0	0	0	0	0
1651653926082	-694.912	364.536	575.352	-36.12	-53.41	-25.9	321	-202.5	-396	0	0	0	0	0	0	0	0	0	0	0	0	0	0	0	0	0	0	0	0	0
1651653926087	-671.488	382.592	539.24	-33.39	-55.93	-21.98	325.5	-199.5	-399	0	0	0	0	0	0	0	0	0	0	0	0	0	0	0	0	0	0	0	0	0
1651653926092	-661.728	393.328	559.736	-30.03	-56.56	-22.4	325.5	-199.5	-399	0	0	0	0	0	0	0	0	0	0	0	0	0	0	0	0	0	0	0	0	0
1651653926097	-667.584	401.624	558.272	-27.44	-53.48	-18.9	327	-199.5	-406.5	0	0	0	0	0	0	0	0	0	0	0	0	0	0	0	0	0	0	0	0	0
1651653926102	-661.728	406.504	559.248	-24.71	-53.06	-17.36	327	-199.5	-406.5	0	0	0	0	0	0	0	0	0	0	0	0	0	0	0	0	0	0	0	0	0
1651653926107	-701.256	401.624	549.976	-21.84	-49.56	-9.73	322.5	-193.5	-411	0	0	0	0	0	0	0	0	0	0	0	0	0	0	0	0	0	0	0	0	0
1651653926112	-706.136	167.872	575.84	-17.64	-47.81	-5.11	322.5	-193.5	-411	0	0	0	0	0	0	0	0	0	0	0	0	0	0	0	0	0	0	0	0	0
1651653926114	-602.192	619.272	523.624	-17.15	-45.15	-3.36	321	-190.5	-415.5	0	0	0	0	0	0	0	0	0	0	0	0	0	0	0	0	0	0	0	0	0
1651653926119	-595.848	282.552	671.976	-15.12	-43.33	-12.6	321	-190.5	-415.5	0	0	0	0	0	0	0	0	0	0	0	0	0	0	0	0	0	0	0	0	0
1651653926124	-613.416	352.824	634.4	-8.75	-38.15	-15.12	319.5	-193.5	-421.5	0	0	0	0	0	0	0	0	0	0	0	0	0	0	0	0	0	0	0	0	0
1651653926129	-621.712	369.904	626.592	-5.88	-33.32	-16.24	319.5	-193.5	-421.5	0	0	0	0	0	0	0	0	0	0	0	0	0	0	0	0	0	0	0	0	0
1651653926134	-647.576	347.456	649.04	-7	-31.22	-19.25	318	-193.5	-423	0	0	0	0	0	0	0	0	0	0	0	0	0	0	0	0	0	0	0	0	0
1651653926139	-687.592	337.696	639.768	-3.36	-30.17	-18.13	318	-193.5	-423	0	0	0	0	0	0	0	0	0	0	0	0	0	0	0	0	0	0	0	0	0
1651653926144	-700.768	329.4	666.608	-3.08	-30.38	-19.95	318	-189	-424.5	0	0	0	0	0	0	0	0	0	0	0	0	0	0	0	0	0	0	0	0	0
1651653926149	-680.272	343.064	650.504	-3.5	-34.58	-22.75	318	-189	-424.5	0	0	0	0	0	0	0	0	0	0	0	0	0	0	0	0	0	0	0	0	0
1651653926154	-655.384	352.824	668.072	-4.97	-35.14	-27.02	316.5	-187.5	-429	0	0	0	0	0	0	0	0	0	0	0	0	0	0	0	0	0	0	0	0	0
1651653926159	-707.6	360.144	632.448	-4.69	-38.92	-31.71	316.5	-187.5	-429	0	0	0	0	0	0	0	0	0	0	0	0	0	0	0	0	0	0	0	0	0
1651653926164	-707.112	375.272	646.6	-6.93	-45.99	-35.77	316.5	-187.5	-432	0	0	0	0	0	0	0	0	0	0	0	0	0	0	0	0	0	0	0	0	0
1651653926169	-690.52	378.2	673.928	-11.83	-50.19	-39.48	315	-187.5	-432	0	0	0	0	0	0	0	0	0	0	0	0	0	0	0	0	0	0	0	0	0
1651653926174	-680.76	356.24	679.784	-16.45	-51.8	-39.97	315	-187.5	-432	0	0	0	0	0	0	0	0	0	0	0	0	0	0	0	0	0	0	0	0	0
1651653926179	-695.888	349.896	667.096	-20.3	-55.72	-40.81	316.5	-183	-435	0	0	0	0	0	0	0	0	0	0	0	0	0	0	0	0	0	0	0	0	0
1651653926184	-703.696	329.888	664.168	-23.94	-64.05	-42.07	316.5	-183	-435	0	0	0	0	0	0	0	0	0	0	0	0	0	0	0	0	0	0	0	0	0
1651653926189	-663.192	325.496	673.928	-26.04	-69.86	-43.33	312	-180	-438	0	0	0	0	0	0	0	0	0	0	0	0	0	0	0	0	0	0	0	0	0
1651653926194	-651.48	304.512	664.168	-28.21	-72.1	-43.89	312	-180	-438	0	0	0	0	0	0	0	0	0	0	0	0	0	0	0	0	0	0	0	0	0
1651653926199	-638.304	297.192	668.072	-27.02	-72.24	-43.12	315	-178.5	-450	0	0	0	0	0	0	0	0	0	0	0	0	0	0	0	0	0	0	0	0	0
1651653926204	-631.96	297.68	681.248	-26.46	-71.89	-44.45	315	-178.5	-450	0	0	0	0	0	0	0	0	0	0	0	0	0	0	0	0	0	0	0	0	0
1651653926209	-663.192	289.872	686.616	-26.88	-71.89	-43.33	321	-174	-454.5	0	0	0	0	0	0	0	0	0	0	0	0	0	0	0	0	0	0	0	0	0
1651653926214	-661.728	309.88	689.544	-23.87	-73.92	-44.24	321	-174	-454.5	0	0	0	0	0	0	0	0	0	0	0	0	0	0	0	0	0	0	0	0	0
1651653926219	-673.44	302.56	694.424	-27.51	-78.89	-46.06	316.5	-171	-457.5	0	0	0	0	0	0	0	0	0	0	0	0	0	0	0	0	0	0	0	0	0
1651653926224	-662.216	301.584	679.296	-26.04	-84	-44.94	316.5	-171	-457.5	0	0	0	0	0	0	0	0	0	0	0	0	0	0	0	0	0	0	0	0	0
1651653926229	-652.944	329.888	687.592	-23.1	-88.06	-45.22	313.5	-171	-465	0	0	0	0	0	0	0	0	0	0	0	0	0	0	0	0	0	0	0	0	0
1651653926234	-650.992	306.464	710.528	-21.7	-88.9	-46.2	313.5	-171	-465	0	0	0	0	0	0	0	0	0	0	0	0	0	0	0	0	0	0	0	0	0
1651653926239	-647.576	343.064	715.408	-19.46	-89.04	-46.83	312	-162	-469.5	0	0	0	0	0	0	0	0	0	0	0	0	0	0	0	0	0	0	0	0	0
1651653926244	-642.208	337.208	727.608	-19.11	-85.68	-48.93	312	-162	-469.5	0	0	0	0	0	0	0	0	0	0	0	0	0	0	0	0	0	0	0	0	0
1651653926249	-630.008	275.72	726.632	-16.94	-81.76	-46.83	301.5	-156	-475.5	0	0	0	0	0	0	0	0	0	0	0	0	0	0	0	0	0	0	0	0	0
1651653926251	-656.36	326.96	729.56	-14.49	-79.24	-37.1	301.5	-156	-475.5	0	0	0	0	0	0	0	0	0	0	0	0	0	0	0	0	0	0	0	0	0
1651653926256	-551.44	207.888	736.392	-11.69	-82.25	-32.76	300	-153	-486	0	0	0	0	0	0	0	0	0	0	0	0	0	0	0	0	0	0	0	0	0
1651653926261	-581.696	213.256	764.208	-14.91	-86.94	-44.31	300	-153	-486	0	0	0	0	0	0	0	0	0	0	0	0	0	0	0	0	0	0	0	0	0
1651653926266	-582.672	187.88	778.848	-18.62	-92.54	-47.6	300	-147	-492	0	0	0	0	0	0	0	0	0	0	0	0	0	0	0	0	0	0	0	0	0
1651653926271	-567.056	167.872	800.32	-20.16	-101.57	-49.42	300	-147	-492	0	0	0	0	0	0	0	0	0	0	0	0	0	0	0	0	0	0	0	0	0
1651653926276	-551.928	137.616	831.064	-20.16	-107.38	-46.62	298.5	-145.5	-499.5	0	0	0	0	0	0	0	0	0	0	0	0	0	0	0	0	0	0	0	0	0
1651653926281	-519.72	130.784	856.928	-22.05	-114.03	-46.76	298.5	-145.5	-499.5	0	0	0	0	0	0	0	0	0	0	0	0	0	0	0	0	0	0	0	0	0
1651653926286	-515.816	80.52	899.872	-22.4	-117.46	-47.88	295.5	-145.5	-508.5	0	0	0	0	0	0	0	0	0	0	0	0	0	0	0	0	0	0	0	0	0
1651653926291	-512.4	102.48	923.784	-27.3	-117.88	-52.92	295.5	-145.5	-508.5	0	0	0	0	0	0	0	0	0	0	0	0	0	0	0	0	0	0	0	0	0
1651653926296	-507.032	150.792	876.448	-26.04	-115.22	-52.92	291	-141	-517.5	0	0	0	0	0	0	0	0	0	0	0	0	0	0	0	0	0	0	0	0	0
1651653926301	-526.552	141.032	858.88	-22.75	-109.9	-52.29	291	-141	-517.5	0	0	0	0	0	0	0	0	0	0	0	0	0	0	0	0	0	0	0	0	0
1651653926306	-549.976	180.56	872.056	-21.28	-106.26	-51.17	285	-133.5	-520.5	0	0	0	0	0	0	0	0	0	0	0	0	0	0	0	0	0	0	0	0	0
1651653926311	-536.8	184.464	864.248	-25.27	-103.04	-49.77	285	-133.5	-520.5	0	0	0	0	0	0	0	0	0	0	0	0	0	0	0	0	0	0	0	0	0
1651653926316	-529.48	205.936	842.776	-24.15	-103.53	-50.33	279	-132	-525	0	0	0	0	0	0	0	0	0	0	0	0	0	0	0	0	0	0	0	0	0
1651653926321	-550.952	237.168	838.384	-23.38	-106.12	-49.98	279	-132	-525	0	0	0	0	0	0	0	0	0	0	0	0	0	0	0	0	0	0	0	0	0
1651653926326	-556.808	258.64	864.248	-20.3	-108.29	-55.3	277.5	-130.5	-538.5	0	0	0	0	0	0	0	0	0	0	0	0	0	0	0	0	0	0	0	0	0
1651653926331	-564.128	264.008	841.8	-15.89	-112.21	-56.63	277.5	-130.5	-538.5	0	0	0	0	0	0	0	0	0	0	0	0	0	0	0	0	0	0	0	0	0
1651653926336	-573.4	278.16	870.104	-14.91	-111.09	-57.61	279	-123	-544.5	0	0	0	0	0	0	0	0	0	0	0	0	0	0	0	0	0	0	0	0	0
1651653926341	-548.024	284.016	892.064	-19.32	-108.15	-56.21	279	-123	-544.5	0	0	0	0	0	0	0	0	0	0	0	0	0	0	0	0	0	0	0	0	0
1651653926346	-532.896	271.328	891.088	-20.65	-106.19	-57.4	274.5	-118.5	-550.5	0	0	0	0	0	0	0	0	0	0	0	0	0	0	0	0	0	0	0	0	0
1651653926351	-513.864	262.544	875.472	-23.1	-105.42	-54.6	274.5	-118.5	-550.5	0	0	0	0	0	0	0	0	0	0	0	0	0	0	0	0	0	0	0	0	0
1651653926356	-500.688	233.752	870.592	-25.83	-106.75	-54.6	262.5	-115.5	-556.5	0	0	0	0	0	0	0	0	0	0	0	0	0	0	0	0	0	0	0	0	0
1651653926361	-484.096	208.376	873.52	-27.51	-108.08	-50.75	262.5	-115.5	-556.5	0	0	0	0	0	0	0	0	0	0	0	0	0	0	0	0	0	0	0	0	0
1651653926366	-466.528	203.008	860.832	-27.02	-110.46	-46.97	262.5	-115.5	-556.5	0	0	0	0	0	0	0	0	0	0	0	0	0	0	0	0	0	0	0	0	0
1651653926371	-449.448	190.808	879.864	-29.96	-110.74	-42.63	253.5	-111	-565.5	0	0	0	0	0	0	0	0	0	0	0	0	0	0	0	0	0	0	0	0	0
1651653926376	-454.816	209.352	866.2	-26.6	-113.12	-40.53	253.5	-111	-565.5	0	0	0	0	0	0	0	0	0	0	0	0	0	0	0	0	0	0	0	0	0
1651653926381	-438.224	198.128	883.28	-25.2	-117.74	-38.29	252	-103.5	-571.5	0	0	0	0	0	0	0	0	0	0	0	0	0	0	0	0	0	0	0	0	0
1651653926386	-463.112	209.84	894.992	-21.14	-125.37	-36.75	252	-103.5	-571.5	0	0	0	0	0	0	0	0	0	0	0	0	0	0	0	0	0	0	0	0	0
1651653926388	-418.216	205.448	878.4	-19.25	-128.52	-37.24	246	-100.5	-580.5	0	0	0	0	0	0	0	0	0	0	0	0	0	0	0	0	0	0	0	0	0
1651653926393	-450.424	256.688	955.504	-21.77	-132.16	-33.95	246	-100.5	-580.5	0	0	0	0	0	0	0	0	0	0	0	0	0	0	0	0	0	0	0	0	0
1651653926398	-443.592	203.496	968.68	-28.63	-129.22	-33.95	240	-99	-591	0	0	0	0	0	0	0	0	0	0	0	0	0	0	0	0	0	0	0	0	0
1651653926403	-404.552	171.288	946.232	-28.21	-120.4	-31.01	240	-99	-591	0	0	0	0	0	0	0	0	0	0	0	0	0	0	0	0	0	0	0	0	0
1651653926408	-389.912	159.088	930.128	-28.07	-106.54	-27.79	237	-96	-595.5	0	0	0	0	0	0	0	0	0	0	0	0	0	0	0	0	0	0	0	0	0
1651653926413	-416.264	176.656	910.608	-29.47	-89.04	-22.19	237	-96	-595.5	0	0	0	0	0	0	0	0	0	0	0	0	0	0	0	0	0	0	0	0	0
1651653926418	-370.88	114.68	905.728	-25.76	-75.88	-19.39	235.5	-91.5	-598.5	0	0	0	0	0	0	0	0	0	0	0	0	0	0	0	0	0	0	0	0	0
1651653926423	-319.64	126.88	871.08	-18.27	-61.67	-15.75	235.5	-91.5	-598.5	0	0	0	0	0	0	0	0	0	0	0	0	0	0	0	0	0	0	0	0	0
1651653926428	-342.088	144.448	903.288	-21.77	-59.5	-12.53	231	-88.5	-606	0	0	0	0	0	0	0	0	0	0	0	0	0	0	0	0	0	0	0	0	0
1651653926433	-304.512	82.96	891.088	-19.46	-60.06	-13.93	231	-88.5	-606	0	0	0	0	0	0	0	0	0	0	0	0	0	0	0	0	0	0	0	0	0
1651653926438	-326.472	126.88	874.008	-12.18	-61.25	-9.87	223.5	-87	-613.5	0	0	0	0	0	0	0	0	0	0	0	0	0	0	0	0	0	0	0	0	0
1651653926443	-345.504	142.496	863.272	-8.96	-66.71	-8.12	223.5	-87	-613.5	0	0	0	0	0	0	0	0	0	0	0	0	0	0	0	0	0	0	0	0	0
1651653926448	-333.792	108.824	927.688	0.91	-65.24	-8.54	216	-81	-616.5	0	0	0	0	0	0	0	0	0	0	0	0	0	0	0	0	0	0	0	0	0
1651653926453	-360.632	136.152	934.52	6.37	-57.89	-6.51	216	-81	-616.5	0	0	0	0	0	0	0	0	0	0	0	0	0	0	0	0	0	0	0	0	0
1651653926458	-372.344	149.328	929.64	11.76	-49.63	-10.15	216	-81	-615	0	0	0	0	0	0	0	0	0	0	0	0	0	0	0	0	0	0	0	0	0
1651653926463	-375.76	178.12	947.696	12.95	-43.05	-6.72	216	-81	-615	0	0	0	0	0	0	0	0	0	0	0	0	0	0	0	0	0	0	0	0	0
1651653926468	-340.624	167.872	952.088	19.6	-32.69	-8.89	217.5	-87	-619.5	0	0	0	0	0	0	0	0	0	0	0	0	0	0	0	0	0	0	0	0	0
1651653926473	-397.72	205.936	1003.328	17.78	-26.39	-4.97	217.5	-87	-619.5	0	0	0	0	0	0	0	0	0	0	0	0	0	0	0	0	0	0	0	0	0
1651653926478	-400.16	174.216	1009.184	16.45	-19.88	-6.51	208.5	-85.5	-627	0	0	0	0	0	0	0	0	0	0	0	0	0	0	0	0	0	0	0	0	0
1651653926483	-378.2	190.808	976.976	18.76	-13.09	-4.13	208.5	-85.5	-627	0	0	0	0	0	0	0	0	0	0	0	0	0	0	0	0	0	0	0	0	0
1651653926488	-372.832	196.664	952.576	20.93	-5.04	-1.12	205.5	-90	-624	0	0	0	0	0	0	0	0	0	0	0	0	0	0	0	0	0	0	0	0	0
1651653926493	-401.624	209.84	948.184	21.63	1.05	0.28	205.5	-90	-624	0	0	0	0	0	0	0	0	0	0	0	0	0	0	0	0	0	0	0	0	0
1651653926498	-407.968	181.048	935.008	25.41	5.6	-1.82	204	-93	-616.5	0	0	0	0	0	0	0	0	0	0	0	0	0	0	0	0	0	0	0	0	0
1651653926503	-392.352	177.144	851.56	34.79	18.13	-3.64	204	-93	-616.5	0	0	0	0	0	0	0	0	0	0	0	0	0	0	0	0	0	0	0	0	0
1651653926508	-369.416	192.272	804.712	39.62	26.95	-4.83	207	-91.5	-619.5	0	0	0	0	0	0	0	0	0	0	0	0	0	0	0	0	0	0	0	0	0
1651653926513	-358.192	198.128	805.2	42.21	32.83	-3.29	207	-91.5	-619.5	0	0	0	0	0	0	0	0	0	0	0	0	0	0	0	0	0	0	0	0	0
1651653926518	-328.912	183	790.56	43.82	34.02	-0.49	211.5	-94.5	-618	0	0	0	0	0	0	0	0	0	0	0	0	0	0	0	0	0	0	0	0	0
1651653926523	-326.472	163.48	799.344	46.62	29.61	1.82	211.5	-94.5	-618	0	0	0	0	0	0	0	0	0	0	0	0	0	0	0	0	0	0	0	0	0
1651653926524	-304.024	160.552	784.704	41.02	18.9	0.21	214.5	-96	-616.5	0	0	0	0	0	0	0	0	0	0	0	0	0	0	0	0	0	0	0	0	0
1651653926529	-251.32	65.88	799.832	39.13	-0.77	0	214.5	-96	-616.5	0	0	0	0	0	0	0	0	0	0	0	0	0	0	0	0	0	0	0	0	0
1651653926534	-285.48	117.12	909.632	37.1	-5.74	3.64	216	-100.5	-616.5	0	0	0	0	0	0	0	0	0	0	0	0	0	0	0	0	0	0	0	0	0
1651653926539	-304.512	103.456	907.192	30.66	-5.81	6.72	216	-100.5	-616.5	0	0	0	0	0	0	0	0	0	0	0	0	0	0	0	0	0	0	0	0	0
1651653926544	-317.2	99.064	931.104	25.97	-3.92	8.33	210	-103.5	-618	0	0	0	0	0	0	0	0	0	0	0	0	0	0	0	0	0	0	0	0	0
1651653926549	-318.176	133.224	923.784	23.59	-3.57	9.94	210	-103.5	-618	0	0	0	0	0	0	0	0	0	0	0	0	0	0	0	0	0	0	0	0	0
1651653926554	-323.544	126.392	910.608	19.81	-4.83	10.5	211.5	-100.5	-619.5	0	0	0	0	0	0	0	0	0	0	0	0	0	0	0	0	0	0	0	0	0
1651653926559	-308.416	138.592	912.072	20.23	-6.65	12.39	211.5	-100.5	-619.5	0	0	0	0	0	0	0	0	0	0	0	0	0	0	0	0	0	0	0	0	0
1651653926564	-299.144	123.952	875.96	22.12	-7.84	13.09	211.5	-100.5	-619.5	0	0	0	0	0	0	0	0	0	0	0	0	0	0	0	0	0	0	0	0	0
1651653926569	-302.072	132.736	869.616	25.41	-9.59	13.37	208.5	-105	-621	0	0	0	0	0	0	0	0	0	0	0	0	0	0	0	0	0	0	0	0	0
1651653926574	-312.32	132.248	851.072	29.26	-11.55	15.12	208.5	-105	-621	0	0	0	0	0	0	0	0	0	0	0	0	0	0	0	0	0	0	0	0	0
1651653926579	-249.856	146.4	715.408	20.3	-14	19.25	210	-108	-624	0	0	0	0	0	0	0	0	0	0	0	0	0	0	0	0	0	0	0	0	0
1651653926584	-308.904	183.488	927.2	25.97	-11.2	18.69	210	-108	-624	0	0	0	0	0	0	0	0	0	0	0	0	0	0	0	0	0	0	0	0	0
1651653926589	-343.064	182.024	864.736	30.52	-10.71	14.77	216	-106.5	-621	0	0	0	0	0	0	0	0	0	0	0	0	0	0	0	0	0	0	0	0	0
1651653926594	-357.216	192.76	893.528	28.91	-6.58	13.09	216	-106.5	-621	0	0	0	0	0	0	0	0	0	0	0	0	0	0	0	0	0	0	0	0	0
1651653926599	-357.704	197.64	880.84	29.4	1.33	12.53	214.5	-106.5	-624	0	0	0	0	0	0	0	0	0	0	0	0	0	0	0	0	0	0	0	0	0
1651653926604	-384.056	232.288	874.008	28.7	8.47	10.78	214.5	-106.5	-624	0	0	0	0	0	0	0	0	0	0	0	0	0	0	0	0	0	0	0	0	0
1651653926609	-375.272	223.016	865.224	26.18	14.91	8.4	208.5	-109.5	-627	0	0	0	0	0	0	0	0	0	0	0	0	0	0	0	0	0	0	0	0	0
1651653926614	-347.944	219.6	863.272	27.16	22.61	7.07	208.5	-109.5	-627	0	0	0	0	0	0	0	0	0	0	0	0	0	0	0	0	0	0	0	0	0
1651653926619	-357.216	236.192	858.88	28.42	25.9	6.3	205.5	-115.5	-622.5	0	0	0	0	0	0	0	0	0	0	0	0	0	0	0	0	0	0	0	0	0
1651653926624	-341.112	238.144	886.208	25.41	24.15	5.25	205.5	-115.5	-622.5	0	0	0	0	0	0	0	0	0	0	0	0	0	0	0	0	0	0	0	0	0
1651653926629	-351.36	227.896	917.44	22.75	22.89	4.83	210	-117	-616.5	0	0	0	0	0	0	0	0	0	0	0	0	0	0	0	0	0	0	0	0	0
1651653926634	-363.56	236.68	926.224	20.86	19.46	3.64	210	-117	-616.5	0	0	0	0	0	0	0	0	0	0	0	0	0	0	0	0	0	0	0	0	0
1651653926639	-341.6	230.824	922.808	17.15	13.58	2.38	210	-114	-618	0	0	0	0	0	0	0	0	0	0	0	0	0	0	0	0	0	0	0	0	0
1651653926644	-340.136	240.096	949.648	14.35	9.45	2.66	210	-114	-618	0	0	0	0	0	0	0	0	0	0	0	0	0	0	0	0	0	0	0	0	0
1651653926649	-344.04	224.968	943.792	9.73	5.04	3.71	207	-115.5	-622.5	0	0	0	0	0	0	0	0	0	0	0	0	0	0	0	0	0	0	0	0	0
1651653926654	-343.064	226.92	941.84	6.72	-0.98	4.97	207	-115.5	-622.5	0	0	0	0	0	0	0	0	0	0	0	0	0	0	0	0	0	0	0	0	0
1651653926659	-360.632	223.504	902.8	5.25	-7.35	5.95	207	-123	-621	0	0	0	0	0	0	0	0	0	0	0	0	0	0	0	0	0	0	0	0	0
1651653926661	-351.848	211.792	866.2	5.18	-16.59	5.25	207	-123	-621	0	0	0	0	0	0	0	0	0	0	0	0	0	0	0	0	0	0	0	0	0
1651653926666	-345.992	222.528	830.088	8.75	-20.86	5.88	205.5	-124.5	-621	0	0	0	0	0	0	0	0	0	0	0	0	0	0	0	0	0	0	0	0	0
1651653926671	-363.072	238.632	811.056	11.83	-21.7	5.39	205.5	-124.5	-621	0	0	0	0	0	0	0	0	0	0	0	0	0	0	0	0	0	0	0	0	0
1651653926676	-364.536	257.176	845.216	13.3	-17.99	6.02	202.5	-126	-624	0	0	0	0	0	0	0	0	0	0	0	0	0	0	0	0	0	0	0	0	0
1651653926681	-370.392	274.256	843.752	17.15	-14.91	5.6	202.5	-126	-624	0	0	0	0	0	0	0	0	0	0	0	0	0	0	0	0	0	0	0	0	0
1651653926686	-386.008	273.768	896.456	18.27	-10.92	5.11	201	-124.5	-625.5	0	0	0	0	0	0	0	0	0	0	0	0	0	0	0	0	0	0	0	0	0
1651653926691	-397.232	311.344	838.872	21.14	-10.08	6.3	201	-124.5	-625.5	0	0	0	0	0	0	0	0	0	0	0	0	0	0	0	0	0	0	0	0	0
1651653926696	-428.952	308.416	1002.352	22.05	-4.27	7.63	201	-123	-625.5	0	0	0	0	0	0	0	0	0	0	0	0	0	0	0	0	0	0	0	0	0
1651653926701	-452.376	352.336	1000.888	23.24	2.1	9.66	201	-123	-625.5	0	0	0	0	0	0	0	0	0	0	0	0	0	0	0	0	0	0	0	0	0
1651653926706	-428.464	326.96	968.68	21.91	1.82	7.91	202.5	-126	-625.5	0	0	0	0	0	0	0	0	0	0	0	0	0	0	0	0	0	0	0	0	0
1651653926711	-409.432	322.08	997.96	23.24	5.18	7.35	202.5	-126	-625.5	0	0	0	0	0	0	0	0	0	0	0	0	0	0	0	0	0	0	0	0	0
1651653926716	-412.36	318.176	995.032	23.73	10.71	6.02	196.5	-132	-624	0	0	0	0	0	0	0	0	0	0	0	0	0	0	0	0	0	0	0	0	0
1651653926721	-410.408	301.096	953.064	23.59	10.36	1.4	196.5	-132	-624	0	0	0	0	0	0	0	0	0	0	0	0	0	0	0	0	0	0	0	0	0
1651653926726	-395.28	310.856	948.672	25.06	9.52	1.54	193.5	-135	-622.5	0	0	0	0	0	0	0	0	0	0	0	0	0	0	0	0	0	0	0	0	0
1651653926731	-370.88	291.824	941.352	24.22	9.66	-0.98	193.5	-135	-622.5	0	0	0	0	0	0	0	0	0	0	0	0	0	0	0	0	0	0	0	0	0
1651653926736	-342.576	276.208	908.656	29.61	8.54	-0.84	199.5	-133.5	-621	0	0	0	0	0	0	0	0	0	0	0	0	0	0	0	0	0	0	0	0	0
1651653926741	-305	215.696	913.048	30.73	8.26	-3.57	199.5	-133.5	-621	0	0	0	0	0	0	0	0	0	0	0	0	0	0	0	0	0	0	0	0	0
1651653926746	-318.176	229.848	912.56	32.55	5.18	-12.88	202.5	-130.5	-621	0	0	0	0	0	0	0	0	0	0	0	0	0	0	0	0	0	0	0	0	0
1651653926751	-294.752	150.792	898.896	32.13	-0.07	-17.5	202.5	-130.5	-621	0	0	0	0	0	0	0	0	0	0	0	0	0	0	0	0	0	0	0	0	0
1651653926756	-348.92	314.76	902.8	33.39	-3.29	-10.92	208.5	-132	-618	0	0	0	0	0	0	0	0	0	0	0	0	0	0	0	0	0	0	0	0	0
1651653926761	-528.504	277.672	902.8	33.04	-4.55	-16.45	208.5	-132	-618	0	0	0	0	0	0	0	0	0	0	0	0	0	0	0	0	0	0	0	0	0
1651653926766	-397.232	260.104	882.792	30.45	-9.38	8.61	208.5	-132	-618	0	0	0	0	0	0	0	0	0	0	0	0	0	0	0	0	0	0	0	0	0
1651653926771	-357.704	267.424	888.16	35.84	-12.6	12.74	205.5	-132	-613.5	0	0	0	0	0	0	0	0	0	0	0	0	0	0	0	0	0	0	0	0	0
1651653926776	-340.624	285.968	913.048	35.28	-7.77	19.6	205.5	-132	-613.5	0	0	0	0	0	0	0	0	0	0	0	0	0	0	0	0	0	0	0	0	0
1651653926781	-374.784	286.456	829.112	37.38	-9.45	21.98	202.5	-133.5	-616.5	0	0	0	0	0	0	0	0	0	0	0	0	0	0	0	0	0	0	0	0	0
1651653926786	-348.92	293.776	914.024	40.32	-14.77	21.14	202.5	-133.5	-616.5	0	0	0	0	0	0	0	0	0	0	0	0	0	0	0	0	0	0	0	0	0
1651653926791	-345.992	278.648	919.392	40.32	-16.59	21.7	198	-133.5	-621	0	0	0	0	0	0	0	0	0	0	0	0	0	0	0	0	0	0	0	0	0
1651653926796	-324.032	285.968	963.312	37.45	-13.09	19.95	198	-133.5	-621	0	0	0	0	0	0	0	0	0	0	0	0	0	0	0	0	0	0	0	0	0
1651653926798	-346.48	268.888	977.952	32.9	-12.18	19.04	196.5	-139.5	-619.5	0	0	0	0	0	0	0	0	0	0	0	0	0	0	0	0	0	0	0	0	0
1651653926803	-338.672	268.4	1003.328	26.81	-12.81	20.16	196.5	-139.5	-619.5	0	0	0	0	0	0	0	0	0	0	0	0	0	0	0	0	0	0	0	0	0
1651653926808	-332.816	259.128	1021.384	21.49	-14.84	17.08	198	-144	-621	0	0	0	0	0	0	0	0	0	0	0	0	0	0	0	0	0	0	0	0	0
1651653926813	-341.6	269.376	980.88	12.81	-13.3	17.99	198	-144	-621	0	0	0	0	0	0	0	0	0	0	0	0	0	0	0	0	0	0	0	0	0
1651653926818	-311.832	256.688	996.008	7.7	-12.95	14.98	195	-150	-630	0	0	0	0	0	0	0	0	0	0	0	0	0	0	0	0	0	0	0	0	0
1651653926823	-314.76	258.64	988.688	3.64	-9.45	13.09	195	-150	-630	0	0	0	0	0	0	0	0	0	0	0	0	0	0	0	0	0	0	0	0	0
1651653926828	-325.496	254.248	971.608	-0.77	-5.39	10.22	193.5	-151.5	-631.5	0	0	0	0	0	0	0	0	0	0	0	0	0	0	0	0	0	0	0	0	0
1651653926833	-335.744	270.84	938.912	-1.82	-4.76	8.61	193.5	-151.5	-631.5	0	0	0	0	0	0	0	0	0	0	0	0	0	0	0	0	0	0	0	0	0
1651653926838	-339.648	281.088	912.56	-2.24	-8.68	7.49	195	-148.5	-624	0	0	0	0	0	0	0	0	0	0	0	0	0	0	0	0	0	0	0	0	0
1651653926843	-335.256	276.696	900.36	-1.89	-12.6	7.21	195	-148.5	-624	0	0	0	0	0	0	0	0	0	0	0	0	0	0	0	0	0	0	0	0	0
1651653926848	-327.448	285.48	894.504	-0.21	-14.7	6.72	193.5	-150	-622.5	0	0	0	0	0	0	0	0	0	0	0	0	0	0	0	0	0	0	0	0	0
1651653926853	-335.256	295.24	888.648	2.52	-15.19	6.3	193.5	-150	-622.5	0	0	0	0	0	0	0	0	0	0	0	0	0	0	0	0	0	0	0	0	0
1651653926858	-320.616	249.856	858.392	9.03	-16.17	9.1	196.5	-154.5	-627	0	0	0	0	0	0	0	0	0	0	0	0	0	0	0	0	0	0	0	0	0
1651653926863	-361.608	447.984	912.56	6.58	-1.19	5.67	196.5	-154.5	-627	0	0	0	0	0	0	0	0	0	0	0	0	0	0	0	0	0	0	0	0	0
1651653926868	-370.392	316.712	873.52	12.81	-0.28	8.61	196.5	-151.5	-625.5	0	0	0	0	0	0	0	0	0	0	0	0	0	0	0	0	0	0	0	0	0
1651653926873	-371.856	345.504	857.904	15.26	1.12	7.98	196.5	-151.5	-625.5	0	0	0	0	0	0	0	0	0	0	0	0	0	0	0	0	0	0	0	0	0
1651653926878	-364.536	367.464	902.312	16.94	4.13	9.03	190.5	-150	-628.5	0	0	0	0	0	0	0	0	0	0	0	0	0	0	0	0	0	0	0	0	0
1651653926883	-374.296	349.408	901.336	17.15	5.46	8.33	190.5	-150	-628.5	0	0	0	0	0	0	0	0	0	0	0	0	0	0	0	0	0	0	0	0	0
1651653926888	-374.296	346.48	941.352	17.43	6.09	7.28	187.5	-151.5	-630	0	0	0	0	0	0	0	0	0	0	0	0	0	0	0	0	0	0	0	0	0
1651653926893	-353.8	349.896	983.32	17.15	11.13	6.65	187.5	-151.5	-630	0	0	0	0	0	0	0	0	0	0	0	0	0	0	0	0	0	0	0	0	0
1651653926898	-374.296	351.36	970.144	15.82	16.94	6.58	193.5	-153	-628.5	0	0	0	0	0	0	0	0	0	0	0	0	0	0	0	0	0	0	0	0	0
1651653926903	-363.072	363.56	971.608	13.93	17.85	4.9	193.5	-153	-628.5	0	0	0	0	0	0	0	0	0	0	0	0	0	0	0	0	0	0	0	0	0
1651653926908	-356.24	345.016	952.088	11.48	16.8	3.99	189	-159	-625.5	0	0	0	0	0	0	0	0	0	0	0	0	0	0	0	0	0	0	0	0	0
1651653926913	-292.312	375.272	954.528	4.76	20.23	5.74	189	-159	-625.5	0	0	0	0	0	0	0	0	0	0	0	0	0	0	0	0	0	0	0	0	0
1651653926918	-338.672	358.192	923.784	-0.84	24.85	6.93	189	-163.5	-624	0	0	0	0	0	0	0	0	0	0	0	0	0	0	0	0	0	0	0	0	0
1651653926923	-360.632	368.928	915.976	-3.64	22.19	7.21	189	-163.5	-624	0	0	0	0	0	0	0	0	0	0	0	0	0	0	0	0	0	0	0	0	0
1651653926928	-376.248	361.12	920.368	-4.83	15.89	6.86	196.5	-162	-618	0	0	0	0	0	0	0	0	0	0	0	0	0	0	0	0	0	0	0	0	0
1651653926933	-336.232	382.104	944.768	-6.86	11.06	7.63	196.5	-162	-618	0	0	0	0	0	0	0	0	0	0	0	0	0	0	0	0	0	0	0	0	0
1651653926934	-350.384	366.488	932.568	-10.36	10.64	8.19	201	-163.5	-618	0	0	0	0	0	0	0	0	0	0	0	0	0	0	0	0	0	0	0	0	0
1651653926939	-353.8	349.408	919.88	-12.32	8.61	8.12	201	-163.5	-618	0	0	0	0	0	0	0	0	0	0	0	0	0	0	0	0	0	0	0	0	0
1651653926944	-353.8	350.872	915	-12.67	7.49	8.82	196.5	-162	-622.5	0	0	0	0	0	0	0	0	0	0	0	0	0	0	0	0	0	0	0	0	0
1651653926949	-352.336	351.36	909.144	-14	7.28	8.05	196.5	-162	-622.5	0	0	0	0	0	0	0	0	0	0	0	0	0	0	0	0	0	0	0	0	0
1651653926954	-373.32	327.448	882.304	-14	5.88	6.44	193.5	-159	-625.5	0	0	0	0	0	0	0	0	0	0	0	0	0	0	0	0	0	0	0	0	0
1651653926959	-309.88	363.56	885.72	-11.83	0.63	5.04	193.5	-159	-625.5	0	0	0	0	0	0	0	0	0	0	0	0	0	0	0	0	0	0	0	0	0
1651653926964	-300.12	305.488	829.6	-16.94	5.25	5.11	193.5	-159	-625.5	0	0	0	0	0	0	0	0	0	0	0	0	0	0	0	0	0	0	0	0	0
1651653926969	-316.224	290.36	783.728	-12.18	2.59	3.64	199.5	-160.5	-621	0	0	0	0	0	0	0	0	0	0	0	0	0	0	0	0	0	0	0	0	0
1651653926974	-306.464	288.896	795.928	-7.98	-2.03	2.45	199.5	-160.5	-621	0	0	0	0	0	0	0	0	0	0	0	0	0	0	0	0	0	0	0	0	0
1651653926979	-268.888	333.792	854.488	-8.68	-2.03	2.87	199.5	-162	-618	0	0	0	0	0	0	0	0	0	0	0	0	0	0	0	0	0	0	0	0	0
1651653926984	-308.904	310.368	842.288	-12.25	6.09	3.36	199.5	-162	-618	0	0	0	0	0	0	0	0	0	0	0	0	0	0	0	0	0	0	0	0	0
1651653926989	-338.184	328.912	847.656	-12.18	10.57	3.08	198	-163.5	-622.5	0	0	0	0	0	0	0	0	0	0	0	0	0	0	0	0	0	0	0	0	0
1651653926994	-346.48	334.28	863.76	-14.07	13.44	2.1	198	-163.5	-622.5	0	0	0	0	0	0	0	0	0	0	0	0	0	0	0	0	0	0	0	0	0
1651653926999	-347.944	328.912	867.176	-15.54	14.35	0.98	199.5	-163.5	-622.5	0	0	0	0	0	0	0	0	0	0	0	0	0	0	0	0	0	0	0	0	0
1651653927004	-344.528	322.568	879.376	-17.92	15.54	-0.14	199.5	-163.5	-622.5	0	0	0	0	0	0	0	0	0	0	0	0	0	0	0	0	0	0	0	0	0
1651653927009	-344.528	318.664	883.28	-20.79	15.47	-1.05	199.5	-157.5	-618	0	0	0	0	0	0	0	0	0	0	0	0	0	0	0	0	0	0	0	0	0
1651653927014	-343.552	312.32	879.376	-21.91	12.74	-2.38	199.5	-157.5	-618	0	0	0	0	0	0	0	0	0	0	0	0	0	0	0	0	0	0	0	0	0
1651653927019	-327.936	315.248	866.2	-23.17	9.24	-3.85	195	-159	-618	0	0	0	0	0	0	0	0	0	0	0	0	0	0	0	0	0	0	0	0	0
1651653927024	-309.392	301.584	853.512	-26.95	9.03	-3.64	195	-159	-618	0	0	0	0	0	0	0	0	0	0	0	0	0	0	0	0	0	0	0	0	0
1651653927029	-319.64	288.408	833.992	-26.74	5.88	-4.06	193.5	-159	-619.5	0	0	0	0	0	0	0	0	0	0	0	0	0	0	0	0	0	0	0	0	0
1651653927034	-334.28	295.728	840.824	-26.74	1.89	-4.27	193.5	-159	-619.5	0	0	0	0	0	0	0	0	0	0	0	0	0	0	0	0	0	0	0	0	0
1651653927039	-342.088	295.728	857.904	-27.37	-1.19	-4.41	199.5	-157.5	-619.5	0	0	0	0	0	0	0	0	0	0	0	0	0	0	0	0	0	0	0	0	0
1651653927044	-345.992	299.632	864.248	-27.37	-4.06	-4.9	199.5	-157.5	-619.5	0	0	0	0	0	0	0	0	0	0	0	0	0	0	0	0	0	0	0	0	0
1651653927049	-341.112	300.12	868.152	-27.86	-7.07	-5.95	202.5	-156	-618	0	0	0	0	0	0	0	0	0	0	0	0	0	0	0	0	0	0	0	0	0
1651653927054	-332.328	284.016	858.88	-28.07	-10.43	-6.58	202.5	-156	-618	0	0	0	0	0	0	0	0	0	0	0	0	0	0	0	0	0	0	0	0	0
1651653927059	-349.896	287.92	864.736	-26.74	-12.39	-7.28	204	-153	-616.5	0	0	0	0	0	0	0	0	0	0	0	0	0	0	0	0	0	0	0	0	0
1651653927064	-362.096	307.44	880.352	-26.11	-12.18	-8.05	204	-153	-616.5	0	0	0	0	0	0	0	0	0	0	0	0	0	0	0	0	0	0	0	0	0
1651653927069	-366.488	301.584	875.96	-24.85	-10.71	-7.91	205.5	-150	-615	0	0	0	0	0	0	0	0	0	0	0	0	0	0	0	0	0	0	0	0	0
1651653927071	-368.928	305.488	863.272	-20.72	-10.01	-7.91	205.5	-150	-615	0	0	0	0	0	0	0	0	0	0	0	0	0	0	0	0	0	0	0	0	0
1651653927076	-359.168	302.072	835.944	-15.61	-10.43	-7.56	202.5	-145.5	-619.5	0	0	0	0	0	0	0	0	0	0	0	0	0	0	0	0	0	0	0	0	0
1651653927081	-331.84	287.432	826.184	-10.92	-10.29	-6.58	202.5	-145.5	-619.5	0	0	0	0	0	0	0	0	0	0	0	0	0	0	0	0	0	0	0	0	0
1651653927086	-319.64	265.96	815.448	-7.77	-7.7	-4.83	196.5	-145.5	-622.5	0	0	0	0	0	0	0	0	0	0	0	0	0	0	0	0	0	0	0	0	0
1651653927091	-311.832	251.32	814.96	-4.41	-4.62	-3.78	196.5	-145.5	-622.5	0	0	0	0	0	0	0	0	0	0	0	0	0	0	0	0	0	0	0	0	0
1651653927096	-305.976	256.688	827.648	-1.47	-2.52	-2.8	195	-145.5	-619.5	0	0	0	0	0	0	0	0	0	0	0	0	0	0	0	0	0	0	0	0	0
1651653927101	-320.616	276.696	855.952	-1.47	2.59	-1.61	195	-145.5	-619.5	0	0	0	0	0	0	0	0	0	0	0	0	0	0	0	0	0	0	0	0	0
1651653927106	-342.088	280.112	875.96	-2.8	6.86	-0.63	196.5	-153	-621	0	0	0	0	0	0	0	0	0	0	0	0	0	0	0	0	0	0	0	0	0
1651653927111	-359.168	284.016	903.288	-2.94	8.68	-0.7	196.5	-153	-621	0	0	0	0	0	0	0	0	0	0	0	0	0	0	0	0	0	0	0	0	0
1651653927116	-373.32	287.432	926.712	-3.78	9.59	-1.33	199.5	-153	-621	0	0	0	0	0	0	0	0	0	0	0	0	0	0	0	0	0	0	0	0	0
1651653927121	-364.536	300.608	954.04	-6.79	10.57	-1.54	199.5	-153	-621	0	0	0	0	0	0	0	0	0	0	0	0	0	0	0	0	0	0	0	0	0
1651653927126	-375.272	303.048	966.728	-10.36	12.18	-2.38	198	-144	-621	0	0	0	0	0	0	0	0	0	0	0	0	0	0	0	0	0	0	0	0	0
1651653927131	-386.984	299.144	968.192	-13.93	12.53	-3.64	198	-144	-621	0	0	0	0	0	0	0	0	0	0	0	0	0	0	0	0	0	0	0	0	0
1651653927136	-375.76	316.224	978.44	-16.59	10.71	-5.25	202.5	-141	-622.5	0	0	0	0	0	0	0	0	0	0	0	0	0	0	0	0	0	0	0	0	0
1651653927141	-384.544	300.608	986.736	-21.7	11.69	-6.3	202.5	-141	-622.5	0	0	0	0	0	0	0	0	0	0	0	0	0	0	0	0	0	0	0	0	0
1651653927146	-401.136	310.856	1003.328	-26.95	12.11	-8.82	205.5	-145.5	-621	0	0	0	0	0	0	0	0	0	0	0	0	0	0	0	0	0	0	0	0	0
1651653927151	-398.696	293.776	1006.744	-31.99	13.09	-9.52	205.5	-145.5	-621	0	0	0	0	0	0	0	0	0	0	0	0	0	0	0	0	0	0	0	0	0
1651653927156	-412.848	315.736	1015.04	-35.14	14.77	-10.08	205.5	-145.5	-621	0	0	0	0	0	0	0	0	0	0	0	0	0	0	0	0	0	0	0	0	0
1651653927161	-434.808	314.76	1014.552	-41.58	16.45	-10.36	205.5	-145.5	-619.5	0	0	0	0	0	0	0	0	0	0	0	0	0	0	0	0	0	0	0	0	0
1651653927166	-441.152	303.048	1003.816	-43.61	15.96	-10.08	205.5	-145.5	-619.5	0	0	0	0	0	0	0	0	0	0	0	0	0	0	0	0	0	0	0	0	0
1651653927171	-445.544	309.392	995.032	-45.64	15.47	-10.15	202.5	-141	-619.5	0	0	0	0	0	0	0	0	0	0	0	0	0	0	0	0	0	0	0	0	0
1651653927176	-426.512	295.728	969.656	-47.88	14.07	-10.92	202.5	-141	-619.5	0	0	0	0	0	0	0	0	0	0	0	0	0	0	0	0	0	0	0	0	0
1651653927181	-420.656	273.768	934.52	-47.46	9.38	-11.62	199.5	-139.5	-621	0	0	0	0	0	0	0	0	0	0	0	0	0	0	0	0	0	0	0	0	0
1651653927186	-398.696	270.352	900.36	-46.06	2.66	-13.51	199.5	-139.5	-621	0	0	0	0	0	0	0	0	0	0	0	0	0	0	0	0	0	0	0	0	0
1651653927191	-345.504	262.056	868.64	-45.64	-3.64	-15.33	193.5	-133.5	-615	0	0	0	0	0	0	0	0	0	0	0	0	0	0	0	0	0	0	0	0	0
1651653927196	-310.368	227.408	812.032	-44.8	-8.4	-17.43	193.5	-133.5	-615	0	0	0	0	0	0	0	0	0	0	0	0	0	0	0	0	0	0	0	0	0
1651653927201	-289.872	227.896	773.968	-41.09	-11.34	-18.76	202.5	-132	-616.5	0	0	0	0	0	0	0	0	0	0	0	0	0	0	0	0	0	0	0	0	0
1651653927206	-307.44	223.016	777.872	-37.24	-11.9	-19.32	202.5	-132	-616.5	0	0	0	0	0	0	0	0	0	0	0	0	0	0	0	0	0	0	0	0	0
1651653927208	-327.448	242.048	805.2	-32.48	-10.22	-18.69	210	-130.5	-618	0	0	0	0	0	0	0	0	0	0	0	0	0	0	0	0	0	0	0	0	0
1651653927213	-346.48	240.096	838.384	-29.26	-6.02	-16.87	210	-130.5	-618	0	0	0	0	0	0	0	0	0	0	0	0	0	0	0	0	0	0	0	0	0
1651653927218	-353.8	242.536	869.616	-25.76	0.07	-14.63	208.5	-123	-615	0	0	0	0	0	0	0	0	0	0	0	0	0	0	0	0	0	0	0	0	0
1651653927223	-366.488	244.488	901.824	-23.73	8.82	-13.16	208.5	-123	-615	0	0	0	0	0	0	0	0	0	0	0	0	0	0	0	0	0	0	0	0	0
1651653927228	-366.976	252.784	938.424	-22.05	18.48	-11.48	207	-124.5	-616.5	0	0	0	0	0	0	0	0	0	0	0	0	0	0	0	0	0	0	0	0	0
1651653927233	-369.416	282.064	996.008	-26.46	27.65	-13.93	207	-124.5	-616.5	0	0	0	0	0	0	0	0	0	0	0	0	0	0	0	0	0	0	0	0	0
1651653927238	-379.664	224.968	979.416	-29.89	36.61	-9.8	199.5	-118.5	-615	0	0	0	0	0	0	0	0	0	0	0	0	0	0	0	0	0	0	0	0	0
1651653927243	-407.48	267.424	1036.512	-29.4	44.45	-8.68	199.5	-118.5	-615	0	0	0	0	0	0	0	0	0	0	0	0	0	0	0	0	0	0	0	0	0
1651653927248	-446.032	283.04	1067.744	-31.78	54.04	-10.64	204	-118.5	-612	0	0	0	0	0	0	0	0	0	0	0	0	0	0	0	0	0	0	0	0	0
1651653927253	-452.864	290.36	1092.632	-37.73	62.02	-10.64	204	-118.5	-612	0	0	0	0	0	0	0	0	0	0	0	0	0	0	0	0	0	0	0	0	0
1651653927258	-469.456	315.248	1161.44	-46.76	69.51	-8.89	207	-121.5	-609	0	0	0	0	0	0	0	0	0	0	0	0	0	0	0	0	0	0	0	0	0
1651653927263	-467.016	280.6	1184.376	-57.4	78.89	-6.79	207	-121.5	-609	0	0	0	0	0	0	0	0	0	0	0	0	0	0	0	0	0	0	0	0	0
1651653927268	-469.456	244	1187.792	-64.82	89.04	-4.34	217.5	-117	-601.5	0	0	0	0	0	0	0	0	0	0	0	0	0	0	0	0	0	0	0	0	0
1651653927273	-502.152	211.304	1712.392	-32.55	92.75	0.7	217.5	-117	-601.5	0	0	0	0	0	0	0	0	0	0	0	0	0	0	0	0	0	0	0	0	0
1651653927278	-540.216	405.528	168.36	82.04	89.88	-9.38	228	-111	-598.5	0	0	0	0	0	0	0	0	0	0	0	0	0	0	0	0	0	0	0	0	0
1651653927283	-612.44	326.472	756.4	-87.5	92.68	30.24	228	-111	-598.5	0	0	0	0	0	0	0	0	0	0	0	0	0	0	0	0	0	0	0	0	0
1651653927288	-712.968	1214.144	939.4	-108.22	82.18	62.72	229.5	-108	-589.5	0	0	0	0	0	0	0	0	0	0	0	0	0	0	0	0	0	0	0	0	0
1651653927293	-556.32	35.624	1051.64	-118.93	65.66	93.59	229.5	-108	-589.5	0	0	0	0	0	0	0	0	0	0	0	0	0	0	0	0	0	0	0	0	0
1651653927298	-187.88	-732	1001.864	-114.38	53.69	71.47	229.5	-112.5	-589.5	0	0	0	0	0	0	0	0	0	0	0	0	0	0	0	0	0	0	0	0	0
1651653927303	-145.424	51.24	613.904	-93.66	29.05	-8.33	229.5	-112.5	-589.5	0	0	0	0	0	0	0	0	0	0	0	0	0	0	0	0	0	0	0	0	0
1651653927308	-395.768	195.688	788.12	-84.56	24.78	-7	237	-120	-595.5	0	0	0	0	0	0	0	0	0	0	0	0	0	0	0	0	0	0	0	0	0
1651653927313	-443.104	116.632	764.696	-86.17	14.56	-12.18	237	-120	-595.5	0	0	0	0	0	0	0	0	0	0	0	0	0	0	0	0	0	0	0	0	0
1651653927318	-346.48	143.96	790.072	-77.56	5.32	-14.84	240	-115.5	-595.5	0	0	0	0	0	0	0	0	0	0	0	0	0	0	0	0	0	0	0	0	0
1651653927323	-73.2	519.232	739.808	-77.14	16.59	-29.47	240	-115.5	-595.5	0	0	0	0	0	0	0	0	0	0	0	0	0	0	0	0	0	0	0	0	0
1651653927328	-43.432	-456.28	642.208	-113.26	25.41	-132.51	240	-106.5	-594	0	0	0	0	0	0	0	0	0	0	0	0	0	0	0	0	0	0	0	0	0
1651653927333	-830.576	1032.608	880.84	-145.67	13.09	-160.51	240	-106.5	-594	0	0	0	0	0	0	0	0	0	0	0	0	0	0	0	0	0	0	0	0	0
1651653927338	-770.552	367.952	806.176	-28.91	19.6	-35.63	243	-90	-589.5	0	0	0	0	0	0	0	0	0	0	0	0	0	0	0	0	0	0	0	0	0
1651653927343	-492.88	97.6	902.8	-54.95	25.69	-11.48	243	-90	-589.5	0	0	0	0	0	0	0	0	0	0	0	0	0	0	0	0	0	0	0	0	0
1651653927345	-691.008	527.528	731.024	-16.38	32.2	26.32	241.5	-79.5	-580.5	0	0	0	0	0	0	0	0	0	0	0	0	0	0	0	0	0	0	0	0	0
1651653927350	-463.112	160.064	818.864	-67.83	34.02	26.81	241.5	-79.5	-580.5	0	0	0	0	0	0	0	0	0	0	0	0	0	0	0	0	0	0	0	0	0
1651653927355	-467.504	107.36	1023.336	-53.13	21.35	0.84	241.5	-79.5	-580.5	0	0	0	0	0	0	0	0	0	0	0	0	0	0	0	0	0	0	0	0	0
1651653927360	-443.592	198.128	867.176	-47.53	23.52	-2.73	234	-84	-577.5	0	0	0	0	0	0	0	0	0	0	0	0	0	0	0	0	0	0	0	0	0
1651653927365	-436.76	125.904	947.696	-68.32	24.43	-16.1	234	-84	-577.5	0	0	0	0	0	0	0	0	0	0	0	0	0	0	0	0	0	0	0	0	0
1651653927370	-468.48	166.408	915	-63.42	25.69	-20.79	241.5	-84	-582	0	0	0	0	0	0	0	0	0	0	0	0	0	0	0	0	0	0	0	0	0
1651653927375	-511.424	186.904	895.968	-74.55	26.25	-24.29	241.5	-84	-582	0	0	0	0	0	0	0	0	0	0	0	0	0	0	0	0	0	0	0	0	0
1651653927380	-554.856	195.688	904.264	-78.26	20.44	-23.8	246	-76.5	-579	0	0	0	0	0	0	0	0	0	0	0	0	0	0	0	0	0	0	0	0	0
1651653927385	-503.128	137.128	894.504	-83.02	13.58	-25.97	246	-76.5	-579	0	0	0	0	0	0	0	0	0	0	0	0	0	0	0	0	0	0	0	0	0
1651653927390	-492.392	155.184	872.544	-87.29	7.42	-34.58	249	-72	-574.5	0	0	0	0	0	0	0	0	0	0	0	0	0	0	0	0	0	0	0	0	0
1651653927395	-487.024	178.608	846.192	-92.75	4.55	-36.82	249	-72	-574.5	0	0	0	0	0	0	0	0	0	0	0	0	0	0	0	0	0	0	0	0	0
1651653927400	-502.64	147.864	838.384	-95.13	2.52	-37.87	250.5	-63	-573	0	0	0	0	0	0	0	0	0	0	0	0	0	0	0	0	0	0	0	0	0
1651653927405	-490.928	141.52	832.04	-93.45	0.28	-38.15	250.5	-63	-573	0	0	0	0	0	0	0	0	0	0	0	0	0	0	0	0	0	0	0	0	0
1651653927410	-468.48	142.984	855.464	-92.82	-0.91	-36.54	249	-58.5	-570	0	0	0	0	0	0	0	0	0	0	0	0	0	0	0	0	0	0	0	0	0
1651653927415	-544.12	77.104	868.64	-95.41	-2.03	-42.56	249	-58.5	-570	0	0	0	0	0	0	0	0	0	0	0	0	0	0	0	0	0	0	0	0	0
1651653927420	-498.248	100.528	860.832	-93.17	-7.63	-46.9	244.5	-54	-570	0	0	0	0	0	0	0	0	0	0	0	0	0	0	0	0	0	0	0	0	0
1651653927425	-481.656	94.672	881.816	-95.34	-8.4	-48.86	244.5	-54	-570	0	0	0	0	0	0	0	0	0	0	0	0	0	0	0	0	0	0	0	0	0
1651653927430	-440.664	86.864	872.056	-97.02	-7.63	-47.39	240	-45	-574.5	0	0	0	0	0	0	0	0	0	0	0	0	0	0	0	0	0	0	0	0	0
1651653927435	-468.48	46.848	863.76	-99.47	-7.35	-46.76	240	-45	-574.5	0	0	0	0	0	0	0	0	0	0	0	0	0	0	0	0	0	0	0	0	0
1651653927440	-486.048	-1.464	829.6	-96.18	-8.4	-49.28	241.5	-39	-576	0	0	0	0	0	0	0	0	0	0	0	0	0	0	0	0	0	0	0	0	0
1651653927445	-456.28	6.344	833.016	-93.73	-13.93	-52.64	241.5	-39	-576	0	0	0	0	0	0	0	0	0	0	0	0	0	0	0	0	0	0	0	0	0
1651653927450	-436.76	-1.464	816.424	-93.03	-17.78	-54.81	244.5	-31.5	-576	0	0	0	0	0	0	0	0	0	0	0	0	0	0	0	0	0	0	0	0	0
1651653927455	-459.208	-7.32	811.544	-91.7	-18.97	-57.61	244.5	-31.5	-576	0	0	0	0	0	0	0	0	0	0	0	0	0	0	0	0	0	0	0	0	0
1651653927460	-471.896	-14.152	837.896	-88.76	-21.07	-59.36	241.5	-22.5	-574.5	0	0	0	0	0	0	0	0	0	0	0	0	0	0	0	0	0	0	0	0	0
1651653927465	-480.68	-16.592	869.616	-85.33	-20.51	-60.69	241.5	-22.5	-574.5	0	0	0	0	0	0	0	0	0	0	0	0	0	0	0	0	0	0	0	0	0
1651653927470	-494.344	-9.272	903.288	-82.39	-18.83	-59.78	237	-21	-571.5	0	0	0	0	0	0	0	0	0	0	0	0	0	0	0	0	0	0	0	0	0
1651653927475	-475.312	-54.168	909.632	-78.05	-17.22	-58.17	237	-21	-571.5	0	0	0	0	0	0	0	0	0	0	0	0	0	0	0	0	0	0	0	0	0
1651653927480	-459.696	-91.256	900.36	-74.41	-14.42	-59.78	235.5	-21	-570	0	0	0	0	0	0	0	0	0	0	0	0	0	0	0	0	0	0	0	0	0
1651653927481	-459.208	-67.832	912.56	-71.33	-11.76	-61.88	235.5	-21	-570	0	0	0	0	0	0	0	0	0	0	0	0	0	0	0	0	0	0	0	0	0
1651653927486	-465.064	-86.864	920.368	-70.35	-8.82	-63	229.5	-13.5	-568.5	0	0	0	0	0	0	0	0	0	0	0	0	0	0	0	0	0	0	0	0	0
1651653927491	-130.784	-559.248	1098.488	-68.18	12.81	-89.95	229.5	-13.5	-568.5	0	0	0	0	0	0	0	0	0	0	0	0	0	0	0	0	0	0	0	0	0
1651653927496	-154.696	-219.112	2060.336	-57.19	53.34	-42.14	226.5	0	-573	0	0	0	0	0	0	0	0	0	0	0	0	0	0	0	0	0	0	0	0	0
1651653927501	-466.04	-202.032	584.624	-67.76	29.12	-113.4	226.5	0	-573	0	0	0	0	0	0	0	0	0	0	0	0	0	0	0	0	0	0	0	0	0
1651653927506	-931.104	-410.896	735.416	-97.93	-2.17	-69.3	231	15	-571.5	0	0	0	0	0	0	0	0	0	0	0	0	0	0	0	0	0	0	0	0	0
1651653927511	-521.672	-104.92	1039.928	-62.93	-21.77	-51.38	231	15	-571.5	0	0	0	0	0	0	0	0	0	0	0	0	0	0	0	0	0	0	0	0	0
1651653927516	-590.48	-144.936	854	-86.1	-35.98	-56.28	229.5	16.5	-565.5	0	0	0	0	0	0	0	0	0	0	0	0	0	0	0	0	0	0	0	0	0
1651653927521	-448.472	-203.984	969.168	-71.26	-41.93	-52.36	229.5	16.5	-565.5	0	0	0	0	0	0	0	0	0	0	0	0	0	0	0	0	0	0	0	0	0
1651653927526	-318.664	-176.656	1111.664	-84.21	-22.89	-56.49	225	16.5	-562.5	0	0	0	0	0	0	0	0	0	0	0	0	0	0	0	0	0	0	0	0	0
1651653927531	-320.616	-195.688	1105.808	-102.06	3.64	-59.99	225	16.5	-562.5	0	0	0	0	0	0	0	0	0	0	0	0	0	0	0	0	0	0	0	0	0
1651653927536	-386.008	-286.944	1004.792	-108.22	22.4	-50.4	225	25.5	-564	0	0	0	0	0	0	0	0	0	0	0	0	0	0	0	0	0	0	0	0	0
1651653927541	-447.008	-284.992	899.384	-106.54	23.52	-43.19	225	25.5	-564	0	0	0	0	0	0	0	0	0	0	0	0	0	0	0	0	0	0	0	0	0
1651653927546	-486.536	-305	827.16	-102.9	10.01	-41.93	225	30	-553.5	0	0	0	0	0	0	0	0	0	0	0	0	0	0	0	0	0	0	0	0	0
1651653927551	-452.864	-334.768	878.4	-101.57	-7.14	-46.27	225	30	-553.5	0	0	0	0	0	0	0	0	0	0	0	0	0	0	0	0	0	0	0	0	0
1651653927556	-384.544	-316.712	909.144	-99.26	-15.26	-49.07	225	30	-553.5	0	0	0	0	0	0	0	0	0	0	0	0	0	0	0	0	0	0	0	0	0
1651653927561	-368.928	-323.056	904.264	-100.45	-9.31	-47.67	222	40.5	-547.5	0	0	0	0	0	0	0	0	0	0	0	0	0	0	0	0	0	0	0	0	0
1651653927566	-375.76	-356.728	891.088	-100.87	1.26	-44.38	222	40.5	-547.5	0	0	0	0	0	0	0	0	0	0	0	0	0	0	0	0	0	0	0	0	0
1651653927571	-393.328	-362.584	845.216	-95.34	8.61	-40.53	219	51	-549	0	0	0	0	0	0	0	0	0	0	0	0	0	0	0	0	0	0	0	0	0
1651653927576	-427.976	-364.536	837.408	-88.2	7.7	-37.66	219	51	-549	0	0	0	0	0	0	0	0	0	0	0	0	0	0	0	0	0	0	0	0	0
1651653927581	-444.08	-357.216	817.888	-84.84	1.82	-36.82	219	58.5	-555	0	0	0	0	0	0	0	0	0	0	0	0	0	0	0	0	0	0	0	0	0
1651653927586	-439.2	-366	837.408	-82.32	-1.89	-36.05	219	58.5	-555	0	0	0	0	0	0	0	0	0	0	0	0	0	0	0	0	0	0	0	0	0
1651653927591	-416.264	-372.344	849.12	-80.43	-2.73	-36.05	216	58.5	-549	0	0	0	0	0	0	0	0	0	0	0	0	0	0	0	0	0	0	0	0	0
1651653927596	-390.4	-368.44	858.88	-79.1	-1.33	-34.72	216	58.5	-549	0	0	0	0	0	0	0	0	0	0	0	0	0	0	0	0	0	0	0	0	0
1651653927601	-388.448	-380.64	855.464	-80.43	2.87	-31.71	217.5	63	-537	0	0	0	0	0	0	0	0	0	0	0	0	0	0	0	0	0	0	0	0	0
1651653927606	-389.424	-391.864	833.992	-79.73	6.3	-28	217.5	63	-537	0	0	0	0	0	0	0	0	0	0	0	0	0	0	0	0	0	0	0	0	0
1651653927611	-392.352	-396.256	807.64	-78.75	7.28	-24.22	217.5	67.5	-532.5	0	0	0	0	0	0	0	0	0	0	0	0	0	0	0	0	0	0	0	0	0
1651653927616	-412.848	-419.192	830.088	-78.82	4.69	-22.47	217.5	67.5	-532.5	0	0	0	0	0	0	0	0	0	0	0	0	0	0	0	0	0	0	0	0	0
1651653927618	-438.712	-451.888	833.992	-80.78	0.77	-26.18	217.5	73.5	-531	0	0	0	0	0	0	0	0	0	0	0	0	0	0	0	0	0	0	0	0	0
1651653927623	-405.528	-442.616	833.504	-79.31	-4.13	-28.98	217.5	73.5	-531	0	0	0	0	0	0	0	0	0	0	0	0	0	0	0	0	0	0	0	0	0
1651653927628	-378.688	-435.296	818.376	-82.53	-5.11	-30.45	216	75	-525	0	0	0	0	0	0	0	0	0	0	0	0	0	0	0	0	0	0	0	0	0
1651653927633	-382.592	-446.52	793	-83.51	-4.34	-28.7	216	75	-525	0	0	0	0	0	0	0	0	0	0	0	0	0	0	0	0	0	0	0	0	0
1651653927638	-391.864	-431.88	765.184	-81.34	-2.8	-26.88	217.5	76.5	-525	0	0	0	0	0	0	0	0	0	0	0	0	0	0	0	0	0	0	0	0	0
1651653927643	-401.136	-418.704	753.472	-78.33	-1.26	-26.67	217.5	76.5	-525	0	0	0	0	0	0	0	0	0	0	0	0	0	0	0	0	0	0	0	0	0
1651653927648	-404.064	-416.264	750.544	-75.95	-1.12	-26.74	219	84	-522	0	0	0	0	0	0	0	0	0	0	0	0	0	0	0	0	0	0	0	0	0
1651653927653	-412.848	-429.44	759.816	-73.99	-3.36	-27.65	219	84	-522	0	0	0	0	0	0	0	0	0	0	0	0	0	0	0	0	0	0	0	0	0
1651653927658	-423.096	-447.008	789.096	-73.64	-6.58	-28.77	214.5	85.5	-516	0	0	0	0	0	0	0	0	0	0	0	0	0	0	0	0	0	0	0	0	0
1651653927663	-410.896	-457.256	797.392	-75.53	-9.59	-30.45	214.5	85.5	-516	0	0	0	0	0	0	0	0	0	0	0	0	0	0	0	0	0	0	0	0	0
1651653927668	-388.936	-473.36	790.56	-78.96	-12.04	-30.45	216	93	-520.5	0	0	0	0	0	0	0	0	0	0	0	0	0	0	0	0	0	0	0	0	0
1651653927673	-379.664	-493.856	774.944	-79.38	-14.21	-28.42	216	93	-520.5	0	0	0	0	0	0	0	0	0	0	0	0	0	0	0	0	0	0	0	0	0
1651653927678	-354.288	-495.808	756.4	-76.16	-13.86	-24.15	219	97.5	-519	0	0	0	0	0	0	0	0	0	0	0	0	0	0	0	0	0	0	0	0	0
1651653927683	-349.408	-534.36	749.568	-73.08	-11.69	-19.18	219	97.5	-519	0	0	0	0	0	0	0	0	0	0	0	0	0	0	0	0	0	0	0	0	0
1651653927688	-325.984	-537.776	681.736	-75.25	-10.57	-16.52	217.5	103.5	-514.5	0	0	0	0	0	0	0	0	0	0	0	0	0	0	0	0	0	0	0	0	0
1651653927693	-338.672	-560.224	727.12	-70.21	-10.64	-12.25	217.5	103.5	-514.5	0	0	0	0	0	0	0	0	0	0	0	0	0	0	0	0	0	0	0	0	0
1651653927698	-338.184	-555.344	719.312	-66.99	-10.57	-8.82	214.5	103.5	-514.5	0	0	0	0	0	0	0	0	0	0	0	0	0	0	0	0	0	0	0	0	0
1651653927703	-338.672	-572.424	712.968	-64.61	-9.31	-6.09	214.5	103.5	-514.5	0	0	0	0	0	0	0	0	0	0	0	0	0	0	0	0	0	0	0	0	0
1651653927708	-338.184	-588.528	709.064	-61.18	-9.73	-4.06	210	102	-504	0	0	0	0	0	0	0	0	0	0	0	0	0	0	0	0	0	0	0	0	0
1651653927713	-328.912	-593.408	707.6	-58.8	-9.73	-2.8	210	102	-504	0	0	0	0	0	0	0	0	0	0	0	0	0	0	0	0	0	0	0	0	0
1651653927718	-312.32	-588.528	711.504	-56.42	-10.01	-0.21	211.5	102	-501	0	0	0	0	0	0	0	0	0	0	0	0	0	0	0	0	0	0	0	0	0
1651653927723	-289.384	-576.816	714.92	-54.25	-7.49	5.04	211.5	102	-501	0	0	0	0	0	0	0	0	0	0	0	0	0	0	0	0	0	0	0	0	0
1651653927728	-245.464	-598.776	721.752	-52.57	-3.29	12.25	210	109.5	-507	0	0	0	0	0	0	0	0	0	0	0	0	0	0	0	0	0	0	0	0	0
1651653927733	-344.528	-538.752	739.808	-53.2	3.43	16.24	210	109.5	-507	0	0	0	0	0	0	0	0	0	0	0	0	0	0	0	0	0	0	0	0	0
1651653927738	-324.032	-627.08	776.896	-54.88	8.75	31.01	207	114	-504	0	0	0	0	0	0	0	0	0	0	0	0	0	0	0	0	0	0	0	0	0
1651653927743	-329.888	-635.376	793	-53.13	8.82	35.49	207	114	-504	0	0	0	0	0	0	0	0	0	0	0	0	0	0	0	0	0	0	0	0	0
1651653927748	-331.84	-620.248	828.624	-54.46	7.63	40.46	207	114	-504	0	0	0	0	0	0	0	0	0	0	0	0	0	0	0	0	0	0	0	0	0
1651653927753	-325.008	-620.248	837.408	-62.79	9.17	40.18	210	112.5	-498	0	0	0	0	0	0	0	0	0	0	0	0	0	0	0	0	0	0	0	0	0
1651653927755	-292.312	-613.904	836.432	-68.88	13.72	44.8	210	112.5	-498	0	0	0	0	0	0	0	0	0	0	0	0	0	0	0	0	0	0	0	0	0
1651653927760	-308.416	-647.576	819.352	-70.63	21.14	52.43	217.5	114	-492	0	0	0	0	0	0	0	0	0	0	0	0	0	0	0	0	0	0	0	0	0
1651653927765	-336.232	-617.808	825.696	-68.32	30.03	60.06	217.5	114	-492	0	0	0	0	0	0	0	0	0	0	0	0	0	0	0	0	0	0	0	0	0
1651653927770	-381.616	-566.568	812.52	-62.3	38.99	65.52	222	108	-487.5	0	0	0	0	0	0	0	0	0	0	0	0	0	0	0	0	0	0	0	0	0
1651653927775	-409.92	-521.184	786.168	-56.49	48.72	72.38	222	108	-487.5	0	0	0	0	0	0	0	0	0	0	0	0	0	0	0	0	0	0	0	0	0
1651653927780	-448.96	-491.416	762.744	-53.9	54.53	78.19	229.5	106.5	-480	0	0	0	0	0	0	0	0	0	0	0	0	0	0	0	0	0	0	0	0	0
1651653927785	-500.2	-495.808	747.128	-51.73	54.88	80.08	229.5	106.5	-480	0	0	0	0	0	0	0	0	0	0	0	0	0	0	0	0	0	0	0	0	0
1651653927790	-518.744	-446.52	750.544	-49.98	52.08	76.23	234	108	-475.5	0	0	0	0	0	0	0	0	0	0	0	0	0	0	0	0	0	0	0	0	0
1651653927795	-561.688	-436.272	768.6	-49.35	47.53	70.98	234	108	-475.5	0	0	0	0	0	0	0	0	0	0	0	0	0	0	0	0	0	0	0	0	0
1651653927800	-585.112	-397.72	812.032	-55.3	43.82	61.81	234	103.5	-477	0	0	0	0	0	0	0	0	0	0	0	0	0	0	0	0	0	0	0	0	0
1651653927805	-637.328	-427.976	811.544	-62.3	41.3	53.55	234	103.5	-477	0	0	0	0	0	0	0	0	0	0	0	0	0	0	0	0	0	0	0	0	0
1651653927810	-637.328	-402.112	786.656	-67.62	36.54	44.31	244.5	103.5	-472.5	0	0	0	0	0	0	0	0	0	0	0	0	0	0	0	0	0	0	0	0	0
1651653927815	-647.088	-422.608	766.16	-68.95	29.68	35.07	244.5	103.5	-472.5	0	0	0	0	0	0	0	0	0	0	0	0	0	0	0	0	0	0	0	0	0
1651653927820	-641.232	-436.76	764.208	-67.34	21.14	22.75	249	105	-459	0	0	0	0	0	0	0	0	0	0	0	0	0	0	0	0	0	0	0	0	0
1651653927825	-624.152	-424.072	781.288	-68.95	17.43	14	249	105	-459	0	0	0	0	0	0	0	0	0	0	0	0	0	0	0	0	0	0	0	0	0
1651653927830	-601.216	-427	752.008	-71.05	15.89	6.86	249	102	-451.5	0	0	0	0	0	0	0	0	0	0	0	0	0	0	0	0	0	0	0	0	0
1651653927835	-614.392	-437.248	725.168	-74.9	15.96	0.28	249	102	-451.5	0	0	0	0	0	0	0	0	0	0	0	0	0	0	0	0	0	0	0	0	0
1651653927840	-618.784	-445.056	699.792	-77.28	12.25	-7.14	249	97.5	-451.5	0	0	0	0	0	0	0	0	0	0	0	0	0	0	0	0	0	0	0	0	0
1651653927845	-633.424	-446.032	687.592	-80.15	6.02	-15.75	249	97.5	-451.5	0	0	0	0	0	0	0	0	0	0	0	0	0	0	0	0	0	0	0	0	0
1651653927850	-635.864	-470.92	665.632	-80.71	0	-25.76	247.5	99	-453	0	0	0	0	0	0	0	0	0	0	0	0	0	0	0	0	0	0	0	0	0
1651653927855	-623.176	-483.608	627.08	-80.08	-4.48	-34.44	247.5	99	-453	0	0	0	0	0	0	0	0	0	0	0	0	0	0	0	0	0	0	0	0	0
1651653927860	-588.04	-498.736	580.232	-80.64	-8.12	-40.25	247.5	109.5	-445.5	0	0	0	0	0	0	0	0	0	0	0	0	0	0	0	0	0	0	0	0	0
1651653927865	-558.76	-525.576	655.872	-79.87	-7.49	-43.26	247.5	109.5	-445.5	0	0	0	0	0	0	0	0	0	0	0	0	0	0	0	0	0	0	0	0	0
1651653927870	-514.84	-559.248	658.8	-65.1	-1.75	-43.4	244.5	115.5	-442.5	0	0	0	0	0	0	0	0	0	0	0	0	0	0	0	0	0	0	0	0	0
1651653927875	-504.592	-580.232	626.592	-58.45	7.07	-41.58	244.5	115.5	-442.5	0	0	0	0	0	0	0	0	0	0	0	0	0	0	0	0	0	0	0	0	0
1651653927880	-491.904	-607.072	643.184	-54.6	13.79	-39.9	241.5	114	-444	0	0	0	0	0	0	0	0	0	0	0	0	0	0	0	0	0	0	0	0	0
1651653927885	-503.128	-629.032	666.12	-45.92	19.46	-38.08	241.5	114	-444	0	0	0	0	0	0	0	0	0	0	0	0	0	0	0	0	0	0	0	0	0
1651653927890	-504.104	-636.84	685.64	-43.54	25.62	-36.05	241.5	121.5	-441	0	0	0	0	0	0	0	0	0	0	0	0	0	0	0	0	0	0	0	0	0
1651653927892	-499.224	-648.064	730.536	-43.54	31.29	-34.37	241.5	121.5	-441	0	0	0	0	0	0	0	0	0	0	0	0	0	0	0	0	0	0	0	0	0
1651653927897	-515.816	-582.184	690.032	-41.37	32.76	-34.23	238.5	121.5	-441	0	0	0	0	0	0	0	0	0	0	0	0	0	0	0	0	0	0	0	0	0
1651653927902	-610	-687.592	331.352	-45.85	-9.52	-48.79	238.5	121.5	-441	0	0	0	0	0	0	0	0	0	0	0	0	0	0	0	0	0	0	0	0	0
1651653927907	-577.304	-687.592	784.704	-59.36	-18.83	-51.17	238.5	123	-438	0	0	0	0	0	0	0	0	0	0	0	0	0	0	0	0	0	0	0	0	0
1651653927912	-513.376	-702.232	682.712	-40.81	-19.11	-53.2	238.5	123	-438	0	0	0	0	0	0	0	0	0	0	0	0	0	0	0	0	0	0	0	0	0
1651653927917	-481.168	-741.76	748.104	-35.35	-13.23	-45.43	235.5	130.5	-430.5	0	0	0	0	0	0	0	0	0	0	0	0	0	0	0	0	0	0	0	0	0
1651653927922	-487.512	-692.472	749.08	-35	-3.43	-36.61	235.5	130.5	-430.5	0	0	0	0	0	0	0	0	0	0	0	0	0	0	0	0	0	0	0	0	0
1651653927927	-513.376	-623.664	676.856	-39.9	3.01	-32.34	240	136.5	-433.5	0	0	0	0	0	0	0	0	0	0	0	0	0	0	0	0	0	0	0	0	0
1651653927932	-513.376	-608.536	630.496	-46.13	5.11	-31.99	240	136.5	-433.5	0	0	0	0	0	0	0	0	0	0	0	0	0	0	0	0	0	0	0	0	0
1651653927937	-500.688	-610.976	598.288	-47.74	4.97	-33.95	237	144	-436.5	0	0	0	0	0	0	0	0	0	0	0	0	0	0	0	0	0	0	0	0	0
1651653927942	-502.152	-607.56	577.304	-45.5	-1.19	-38.99	237	144	-436.5	0	0	0	0	0	0	0	0	0	0	0	0	0	0	0	0	0	0	0	0	0
1651653927947	-511.424	-638.304	613.904	-47.25	-11.55	-43.54	237	144	-436.5	0	0	0	0	0	0	0	0	0	0	0	0	0	0	0	0	0	0	0	0	0
1651653927952	-518.256	-670.024	658.8	-49.91	-20.16	-45.78	231	147	-432	0	0	0	0	0	0	0	0	0	0	0	0	0	0	0	0	0	0	0	0	0
1651653927957	-514.84	-638.304	679.296	-50.82	-23.73	-44.94	231	147	-432	0	0	0	0	0	0	0	0	0	0	0	0	0	0	0	0	0	0	0	0	0
1651653927962	-497.76	-656.848	711.016	-47.39	-22.26	-40.46	231	141	-426	0	0	0	0	0	0	0	0	0	0	0	0	0	0	0	0	0	0	0	0	0
1651653927967	-492.392	-654.408	722.24	-48.93	-15.19	-34.23	231	141	-426	0	0	0	0	0	0	0	0	0	0	0	0	0	0	0	0	0	0	0	0	0
1651653927972	-483.12	-639.768	684.176	-57.05	-13.65	-33.53	231	148.5	-426	0	0	0	0	0	0	0	0	0	0	0	0	0	0	0	0	0	0	0	0	0
1651653927977	-461.648	-679.784	654.896	-57.89	-13.09	-36.54	231	148.5	-426	0	0	0	0	0	0	0	0	0	0	0	0	0	0	0	0	0	0	0	0	0
1651653927982	-457.744	-696.376	637.328	-61.04	-15.47	-46.55	228	156	-423	0	0	0	0	0	0	0	0	0	0	0	0	0	0	0	0	0	0	0	0	0
1651653927987	-422.12	-713.944	583.16	-58.73	-18.2	-51.59	228	156	-423	0	0	0	0	0	0	0	0	0	0	0	0	0	0	0	0	0	0	0	0	0
1651653927992	-420.656	-696.376	583.648	-51.52	-14.77	-49.77	228	151.5	-415.5	0	0	0	0	0	0	0	0	0	0	0	0	0	0	0	0	0	0	0	0	0
1651653927997	-420.168	-677.344	593.896	-43.19	-10.71	-47.67	228	151.5	-415.5	0	0	0	0	0	0	0	0	0	0	0	0	0	0	0	0	0	0	0	0	0
1651653928002	-424.072	-670.512	600.24	-54.6	-6.44	-42.77	231	156	-411	0	0	0	0	0	0	0	0	0	0	0	0	0	0	0	0	0	0	0	0	0
1651653928007	-383.568	-790.56	551.44	-47.39	-3.78	-37.17	231	156	-411	0	0	0	0	0	0	0	0	0	0	0	0	0	0	0	0	0	0	0	0	0
1651653928012	-362.096	-852.048	549.488	-36.33	0.77	-11.97	229.5	166.5	-412.5	0	0	0	0	0	0	0	0	0	0	0	0	0	0	0	0	0	0	0	0	0
1651653928017	-386.984	-752.008	595.848	-27.58	3.57	-5.74	229.5	166.5	-412.5	0	0	0	0	0	0	0	0	0	0	0	0	0	0	0	0	0	0	0	0	0
1651653928022	-425.048	-710.04	616.344	-24.78	5.88	-7.42	225	169.5	-414	0	0	0	0	0	0	0	0	0	0	0	0	0	0	0	0	0	0	0	0	0
1651653928027	-478.24	-690.032	622.688	-25.48	-0.14	-14.21	225	169.5	-414	0	0	0	0	0	0	0	0	0	0	0	0	0	0	0	0	0	0	0	0	0
1651653928028	-480.68	-709.064	658.312	-27.02	-8.19	-21.42	225	166.5	-414	0	0	0	0	0	0	0	0	0	0	0	0	0	0	0	0	0	0	0	0	0
1651653928033	-439.688	-729.56	704.184	-31.22	-13.09	-21.84	225	166.5	-414	0	0	0	0	0	0	0	0	0	0	0	0	0	0	0	0	0	0	0	0	0
1651653928038	-427.976	-716.384	729.072	-38.43	-10.43	-21.07	225	163.5	-414	0	0	0	0	0	0	0	0	0	0	0	0	0	0	0	0	0	0	0	0	0
1651653928043	-422.12	-710.528	708.088	-43.82	-5.25	-21.49	225	163.5	-414	0	0	0	0	0	0	0	0	0	0	0	0	0	0	0	0	0	0	0	0	0
1651653928048	-421.144	-730.048	652.456	-45.5	-2.24	-20.65	226.5	172.5	-411	0	0	0	0	0	0	0	0	0	0	0	0	0	0	0	0	0	0	0	0	0
1651653928053	-425.048	-690.032	651.968	-44.59	-1.54	-18.55	226.5	172.5	-411	0	0	0	0	0	0	0	0	0	0	0	0	0	0	0	0	0	0	0	0	0
1651653928058	-421.632	-723.704	678.808	-43.61	0.42	-15.05	222	177	-409.5	0	0	0	0	0	0	0	0	0	0	0	0	0	0	0	0	0	0	0	0	0
1651653928063	-435.296	-711.504	684.176	-43.89	1.89	-14.42	222	177	-409.5	0	0	0	0	0	0	0	0	0	0	0	0	0	0	0	0	0	0	0	0	0
1651653928068	-425.536	-733.464	670.512	-44.59	3.5	-12.88	216	174	-406.5	0	0	0	0	0	0	0	0	0	0	0	0	0	0	0	0	0	0	0	0	0
1651653928073	-395.768	-733.464	638.304	-43.26	4.69	-10.64	216	174	-406.5	0	0	0	0	0	0	0	0	0	0	0	0	0	0	0	0	0	0	0	0	0
1651653928078	-380.64	-750.056	633.424	-43.54	4.34	-8.89	216	184.5	-402	0	0	0	0	0	0	0	0	0	0	0	0	0	0	0	0	0	0	0	0	0
1651653928083	-385.52	-745.176	633.912	-43.61	3.85	-7.77	216	184.5	-402	0	0	0	0	0	0	0	0	0	0	0	0	0	0	0	0	0	0	0	0	0
1651653928088	-380.64	-734.928	609.024	-43.75	3.15	-5.32	219	181.5	-394.5	0	0	0	0	0	0	0	0	0	0	0	0	0	0	0	0	0	0	0	0	0
1651653928093	-365.024	-742.736	578.768	-43.68	1.82	-2.17	219	181.5	-394.5	0	0	0	0	0	0	0	0	0	0	0	0	0	0	0	0	0	0	0	0	0
1651653928098	-366.488	-751.52	587.064	-42.77	0.49	-1.05	219	177	-402	0	0	0	0	0	0	0	0	0	0	0	0	0	0	0	0	0	0	0	0	0
1651653928103	-370.392	-752.496	588.04	-39.83	0.56	-0.21	219	177	-402	0	0	0	0	0	0	0	0	0	0	0	0	0	0	0	0	0	0	0	0	0
1651653928108	-386.008	-730.048	594.872	-35.63	0.63	0.49	216	181.5	-399	0	0	0	0	0	0	0	0	0	0	0	0	0	0	0	0	0	0	0	0	0
1651653928113	-404.552	-697.84	615.368	-32.13	1.61	2.45	216	181.5	-399	0	0	0	0	0	0	0	0	0	0	0	0	0	0	0	0	0	0	0	0	0
1651653928118	-422.608	-671.488	619.272	-33.32	4.55	4.76	216	183	-394.5	0	0	0	0	0	0	0	0	0	0	0	0	0	0	0	0	0	0	0	0	0
1651653928123	-421.144	-674.416	605.12	-35.14	6.79	6.16	216	183	-394.5	0	0	0	0	0	0	0	0	0	0	0	0	0	0	0	0	0	0	0	0	0
1651653928128	-419.192	-696.376	571.936	-35.42	7.77	5.81	216	178.5	-396	0	0	0	0	0	0	0	0	0	0	0	0	0	0	0	0	0	0	0	0	0
1651653928133	-441.152	-684.664	565.592	-33.25	6.51	4.55	216	178.5	-396	0	0	0	0	0	0	0	0	0	0	0	0	0	0	0	0	0	0	0	0	0
1651653928138	-434.32	-684.664	569.496	-33.95	5.11	3.29	217.5	184.5	-390	0	0	0	0	0	0	0	0	0	0	0	0	0	0	0	0	0	0	0	0	0
1651653928143	-429.928	-700.28	578.28	-33.6	2.66	3.15	217.5	184.5	-390	0	0	0	0	0	0	0	0	0	0	0	0	0	0	0	0	0	0	0	0	0
1651653928148	-426.512	-706.624	588.04	-33.74	2.8	3.64	217.5	184.5	-390	0	0	0	0	0	0	0	0	0	0	0	0	0	0	0	0	0	0	0	0	0
1651653928153	-416.752	-694.912	588.528	-36.54	6.02	5.67	217.5	189	-382.5	0	0	0	0	0	0	0	0	0	0	0	0	0	0	0	0	0	0	0	0	0
1651653928158	-426.024	-685.64	577.792	-38.71	7.84	8.47	217.5	189	-382.5	0	0	0	0	0	0	0	0	0	0	0	0	0	0	0	0	0	0	0	0	0
1651653928163	-436.76	-693.936	563.64	-39.48	5.95	10.08	217.5	187.5	-379.5	0	0	0	0	0	0	0	0	0	0	0	0	0	0	0	0	0	0	0	0	0
1651653928165	-467.992	-699.792	580.232	-38.92	2.73	7.91	217.5	187.5	-379.5	0	0	0	0	0	0	0	0	0	0	0	0	0	0	0	0	0	0	0	0	0
1651653928170	-480.68	-670.024	584.136	-40.6	-0.63	4.13	225	184.5	-382.5	0	0	0	0	0	0	0	0	0	0	0	0	0	0	0	0	0	0	0	0	0
