Device information:
Device Id: Mitch
Firmware Version: 1.1.0
Hardware Version: v2.0
Acquisition Information:
Mode:MODE IMU
Sampling frequency:100Hz
Axl FS:16 g     Gyro FS:2000 dps
Timestamp	Acc.X	Acc.Y	Acc.Z	Gyro.X	Gyro.Y	Gyro.Z	Magn.X	Magn.Y	Magn.Z	Distance.x	Distance.y	P.0	P.1	P.2	P.3	P.4	P.5	P.6	P.7	P.8	P.9	P.10	P.11	P.12	P.13	P.14	P.15	PPG_RED.	PPG_IR.	PPG_GREEN.
1651657469075	-35.624	12.688	986.736	3.36	0	0	231	-168	-399	0	0	0	0	0	0	0	0	0	0	0	0	0	0	0	0	0	0	1092	884	0
1651657469085	-21.96	9.272	1014.064	5.53	-5.46	1.68	-307.5	61.5	-483	0	0	0	0	0	0	0	0	0	0	0	0	0	0	0	0	0	0	1089	892	0
1651657469095	-26.352	7.808	1005.768	14.21	-26.18	-0.35	-306	61.5	-481.5	0	0	0	0	0	0	0	0	0	0	0	0	0	0	0	0	0	0	1073	885	0
1651657469105	-40.016	-7.32	1008.208	4.55	-7	-7.77	-304.5	66	-483	0	0	0	0	0	0	0	0	0	0	0	0	0	0	0	0	0	0	1074	892	0
1651657469115	-33.672	-10.736	1006.256	0.07	-0.14	-6.23	-304.5	66	-477	0	0	0	0	0	0	0	0	0	0	0	0	0	0	0	0	0	0	1082	885	0
1651657469125	-20.008	-5.856	1015.528	0.07	-0.28	-4.69	-304.5	66	-478.5	0	0	0	0	0	0	0	0	0	0	0	0	0	0	0	0	0	0	1098	885	0
1651657469135	-25.376	-5.856	1004.792	0.14	-0.91	-4.41	-303	63	-483	0	0	0	0	0	0	0	0	0	0	0	0	0	0	0	0	0	0	1086	887	0
1651657469145	-14.152	6.344	1010.648	-0.35	-0.42	-3.36	-307.5	58.5	-480	0	0	0	0	0	0	0	0	0	0	0	0	0	0	0	0	0	0	1081	888	0
1651657469155	-15.616	-3.904	1002.352	-0.28	-0.14	-0.35	-306	60	-477	0	0	0	0	0	0	0	0	0	0	0	0	0	0	0	0	0	0	1089	886	0
1651657469165	-20.496	-2.928	1014.552	-0.07	0	0.49	-301.5	61.5	-480	0	0	0	0	0	0	0	0	0	0	0	0	0	0	0	0	0	0	1095	889	0
1651657469175	-22.448	-4.88	1010.648	-0.14	-0.07	0.77	-303	60	-484.5	0	0	0	0	0	0	0	0	0	0	0	0	0	0	0	0	0	0	1072	870	0
1651657469185	-15.128	-2.44	1009.672	-0.14	-0.14	1.12	-307.5	60	-487.5	0	0	0	0	0	0	0	0	0	0	0	0	0	0	0	0	0	0	1086	877	0
1651657469195	-20.496	-4.88	1011.136	-0.14	-0.07	1.33	-313.5	63	-487.5	0	0	0	0	0	0	0	0	0	0	0	0	0	0	0	0	0	0	1090	901	0
1651657469205	-19.032	-14.64	1008.208	-0.21	-0.28	1.26	-310.5	61.5	-487.5	0	0	0	0	0	0	0	0	0	0	0	0	0	0	0	0	0	0	1094	891	0
1651657469215	-13.176	0.976	1008.208	-0.14	-0.28	1.26	-307.5	61.5	-481.5	0	0	0	0	0	0	0	0	0	0	0	0	0	0	0	0	0	0	1081	888	0
1651657469225	-15.128	31.232	994.056	0.49	-1.89	-4.06	-304.5	66	-478.5	0	0	0	0	0	0	0	0	0	0	0	0	0	0	0	0	0	0	1074	874	0
1651657469235	-18.544	-2.44	1007.232	0.14	-0.14	-2.8	-301.5	61.5	-481.5	0	0	0	0	0	0	0	0	0	0	0	0	0	0	0	0	0	0	1071	888	0
1651657469245	-27.816	7.808	1016.016	0.28	-1.96	-4.55	-306	61.5	-490.5	0	0	0	0	0	0	0	0	0	0	0	0	0	0	0	0	0	0	1088	888	0
1651657469255	-39.528	-27.816	998.936	0.28	0.21	-6.72	-313.5	66	-495	0	0	0	0	0	0	0	0	0	0	0	0	0	0	0	0	0	0	1084	892	0
1651657469265	-30.744	-2.44	1010.648	0.07	-1.19	-5.95	-313.5	61.5	-487.5	0	0	0	0	0	0	0	0	0	0	0	0	0	0	0	0	0	0	1093	882	0
1651657469275	-37.088	1.464	1009.672	0.35	-0.49	-8.47	-310.5	61.5	-483	0	0	0	0	0	0	0	0	0	0	0	0	0	0	0	0	0	0	1086	888	0
1651657469285	-13.664	-12.2	1016.016	0.21	-0.98	-10.08	-306	63	-484.5	0	0	0	0	0	0	0	0	0	0	0	0	0	0	0	0	0	0	1089	884	0
1651657469295	-108.824	37.576	1008.208	0.35	0.42	-13.58	-301.5	61.5	-481.5	0	0	0	0	0	0	0	0	0	0	0	0	0	0	0	0	0	0	1078	878	0
1651657469305	-1.952	-10.736	1008.208	0.14	0.21	-15.47	-301.5	66	-478.5	0	0	0	0	0	0	0	0	0	0	0	0	0	0	0	0	0	0	1082	881	0
1651657469315	-30.256	54.656	1011.624	0.56	-1.54	-10.57	-303	63	-480	0	0	0	0	0	0	0	0	0	0	0	0	0	0	0	0	0	0	1081	889	0
1651657469325	-68.808	13.176	1011.136	0.49	-0.14	-19.88	-307.5	63	-483	0	0	0	0	0	0	0	0	0	0	0	0	0	0	0	0	0	0	1086	890	0
1651657469335	-33.672	-10.736	949.16	0.28	0.35	-12.6	-301.5	64.5	-477	0	0	0	0	0	0	0	0	0	0	0	0	0	0	0	0	0	0	1085	886	0
1651657469345	89.792	-94.184	1085.312	0	-3.71	-7.63	-301.5	63	-477	0	0	0	0	0	0	0	0	0	0	0	0	0	0	0	0	0	0	1083	884	0
1651657469355	-13.176	-6.344	1041.392	0.14	-1.05	-0.14	-307.5	61.5	-483	0	0	0	0	0	0	0	0	0	0	0	0	0	0	0	0	0	0	1088	889	0
1651657469365	-14.64	7.32	995.032	0	-0.21	0.07	-309	61.5	-486	0	0	0	0	0	0	0	0	0	0	0	0	0	0	0	0	0	0	1088	890	0
1651657469375	-28.792	-8.296	999.912	0	-1.05	0	-310.5	64.5	-484.5	0	0	0	0	0	0	0	0	0	0	0	0	0	0	0	0	0	0	1082	887	0
1651657469385	-12.688	1.952	1022.848	0	-0.98	0.14	-306	66	-483	0	0	0	0	0	0	0	0	0	0	0	0	0	0	0	0	0	0	1086	883	0
1651657469395	-24.888	-5.856	1011.136	-0.14	-0.77	0.21	-304.5	67.5	-483	0	0	0	0	0	0	0	0	0	0	0	0	0	0	0	0	0	0	1080	891	0
1651657469405	-18.544	-7.808	1016.992	0.14	-1.05	0.14	-306	64.5	-481.5	0	0	0	0	0	0	0	0	0	0	0	0	0	0	0	0	0	0	1088	872	0
1651657469415	-24.888	-0.976	1012.6	-0.14	-0.84	0.14	-304.5	64.5	-481.5	0	0	0	0	0	0	0	0	0	0	0	0	0	0	0	0	0	0	1071	880	0
1651657469425	-35.136	-4.88	1016.016	-0.07	-0.91	0.14	-309	61.5	-484.5	0	0	0	0	0	0	0	0	0	0	0	0	0	0	0	0	0	0	1072	874	0
1651657469435	-32.696	0.976	1014.552	0	-1.26	-0.07	-312	58.5	-484.5	0	0	0	0	0	0	0	0	0	0	0	0	0	0	0	0	0	0	1085	884	0
1651657469445	-15.616	-7.808	1012.112	-0.14	-0.63	-0.07	-310.5	58.5	-481.5	0	0	0	0	0	0	0	0	0	0	0	0	0	0	0	0	0	0	1085	880	0
1651657469455	-8.784	2.44	1008.208	0	-0.77	0	-307.5	60	-481.5	0	0	0	0	0	0	0	0	0	0	0	0	0	0	0	0	0	0	1080	876	0
1651657469465	-20.008	0	1005.768	0.07	-0.84	0.14	-307.5	63	-478.5	0	0	0	0	0	0	0	0	0	0	0	0	0	0	0	0	0	0	1081	887	0
1651657469475	-15.128	-2.928	1007.72	0	-0.84	0.21	-313.5	60	-471	0	0	0	0	0	0	0	0	0	0	0	0	0	0	0	0	0	0	1080	894	0
1651657469485	-15.616	-0.976	1014.552	0.07	-0.84	0.14	-309	64.5	-478.5	0	0	0	0	0	0	0	0	0	0	0	0	0	0	0	0	0	0	1083	888	0
1651657469495	-28.304	-2.928	1010.648	0.07	-1.05	0	-303	61.5	-481.5	0	0	0	0	0	0	0	0	0	0	0	0	0	0	0	0	0	0	1086	881	0
1651657469505	-21.472	-8.784	1011.136	0.07	-0.98	0	-303	58.5	-481.5	0	0	0	0	0	0	0	0	0	0	0	0	0	0	0	0	0	0	1091	889	0
1651657469515	-17.568	-7.32	1012.6	0	-0.91	0	-301.5	58.5	-483	0	0	0	0	0	0	0	0	0	0	0	0	0	0	0	0	0	0	1091	882	0
1651657469525	-27.816	-3.416	1013.576	0	-0.91	0.07	-306	58.5	-480	0	0	0	0	0	0	0	0	0	0	0	0	0	0	0	0	0	0	1086	881	0
1651657469535	-26.84	-0.976	1012.6	0	-0.91	0.14	-312	70.5	-481.5	0	0	0	0	0	0	0	0	0	0	0	0	0	0	0	0	0	0	1091	886	0
1651657469545	-17.08	-0.976	1014.064	-0.07	-0.84	0.07	-315	72	-480	0	0	0	0	0	0	0	0	0	0	0	0	0	0	0	0	0	0	1089	882	0
1651657469555	-24.4	-0.488	1012.6	0.07	-0.98	0	-310.5	69	-478.5	0	0	0	0	0	0	0	0	0	0	0	0	0	0	0	0	0	0	1085	887	0
1651657469565	-16.104	0.488	1010.648	0.07	-0.77	0.07	-304.5	70.5	-478.5	0	0	0	0	0	0	0	0	0	0	0	0	0	0	0	0	0	0	1093	884	0
1651657469575	-20.008	0.488	1014.064	0	-0.91	0.14	-307.5	67.5	-484.5	0	0	0	0	0	0	0	0	0	0	0	0	0	0	0	0	0	0	1090	887	0
1651657469585	-15.616	-4.392	1016.992	0.07	-0.91	0.07	-309	69	-487.5	0	0	0	0	0	0	0	0	0	0	0	0	0	0	0	0	0	0	1084	886	0
1651657469595	-16.104	-8.784	1010.648	0.07	-0.77	0.07	-312	67.5	-483	0	0	0	0	0	0	0	0	0	0	0	0	0	0	0	0	0	0	1092	887	0
1651657469605	-20.496	-7.32	1013.088	0.07	-0.98	0	-313.5	64.5	-478.5	0	0	0	0	0	0	0	0	0	0	0	0	0	0	0	0	0	0	1084	881	0
1651657469615	-19.52	-7.32	1012.6	0.07	-0.98	0	-310.5	63	-474	0	0	0	0	0	0	0	0	0	0	0	0	0	0	0	0	0	0	1093	889	0
1651657469625	-20.984	-4.392	1012.6	0	-0.77	0	-307.5	61.5	-478.5	0	0	0	0	0	0	0	0	0	0	0	0	0	0	0	0	0	0	1087	883	0
1651657469635	-15.616	-6.344	1012.112	-0.07	-0.91	0	-306	60	-481.5	0	0	0	0	0	0	0	0	0	0	0	0	0	0	0	0	0	0	1092	881	0
1651657469645	-18.544	-7.808	1011.624	0	-0.84	0.07	-307.5	60	-484.5	0	0	0	0	0	0	0	0	0	0	0	0	0	0	0	0	0	0	1087	881	0
1651657469655	-21.472	-0.976	1007.72	0.14	-1.05	0.07	-307.5	61.5	-486	0	0	0	0	0	0	0	0	0	0	0	0	0	0	0	0	0	0	1080	872	0
1651657469665	-23.912	2.928	1010.648	-0.07	-0.91	0	-301.5	63	-480	0	0	0	0	0	0	0	0	0	0	0	0	0	0	0	0	0	0	1085	877	0
1651657469675	-20.496	4.88	1011.624	0	-0.91	0.07	-301.5	66	-477	0	0	0	0	0	0	0	0	0	0	0	0	0	0	0	0	0	0	1090	890	0
1651657469685	-17.568	-0.976	1012.6	0.07	-0.98	0	-309	63	-481.5	0	0	0	0	0	0	0	0	0	0	0	0	0	0	0	0	0	0	1073	879	0
1651657469695	-14.64	-3.904	1011.624	0.07	-0.84	0.14	-310.5	60	-483	0	0	0	0	0	0	0	0	0	0	0	0	0	0	0	0	0	0	1068	882	0
1651657469705	-24.4	-2.928	1012.6	0.07	-0.84	0.07	-309	60	-484.5	0	0	0	0	0	0	0	0	0	0	0	0	0	0	0	0	0	0	1079	877	0
1651657469715	-21.96	2.44	1008.696	0	-0.98	0	-312	67.5	-484.5	0	0	0	0	0	0	0	0	0	0	0	0	0	0	0	0	0	0	1079	889	0
1651657469725	-22.936	0	1012.6	0	-0.91	0.07	-307.5	72	-484.5	0	0	0	0	0	0	0	0	0	0	0	0	0	0	0	0	0	0	1084	887	0
1651657469735	-21.472	-2.44	1008.208	-0.07	-0.84	0	-307.5	67.5	-484.5	0	0	0	0	0	0	0	0	0	0	0	0	0	0	0	0	0	0	1082	879	0
1651657469745	-20.984	-2.44	1009.672	0.07	-0.91	0	-309	70.5	-484.5	0	0	0	0	0	0	0	0	0	0	0	0	0	0	0	0	0	0	1084	889	0
1651657469755	-17.08	-0.976	1011.624	0.07	-0.98	0.07	-307.5	69	-483	0	0	0	0	0	0	0	0	0	0	0	0	0	0	0	0	0	0	1087	880	0
1651657469765	-16.104	-6.832	1012.6	-0.07	-0.91	0.07	-309	64.5	-483	0	0	0	0	0	0	0	0	0	0	0	0	0	0	0	0	0	0	1082	882	0
1651657469775	-21.96	1.952	1012.6	-0.07	-0.84	0.14	-307.5	64.5	-483	0	0	0	0	0	0	0	0	0	0	0	0	0	0	0	0	0	0	1079	880	0
1651657469785	-23.912	-0.976	1017.48	-0.07	-0.84	0.14	-309	61.5	-483	0	0	0	0	0	0	0	0	0	0	0	0	0	0	0	0	0	0	1082	884	0
1651657469795	-23.424	0.976	1016.016	0	-0.91	0.14	-312	63	-483	0	0	0	0	0	0	0	0	0	0	0	0	0	0	0	0	0	0	1073	880	0
1651657469805	-19.032	-4.88	1009.672	0	-0.7	0.07	-310.5	69	-483	0	0	0	0	0	0	0	0	0	0	0	0	0	0	0	0	0	0	1084	894	0
1651657469815	-20.008	-8.296	1005.28	0.07	-0.91	0	-313.5	66	-487.5	0	0	0	0	0	0	0	0	0	0	0	0	0	0	0	0	0	0	1079	885	0
1651657469825	-6.832	-5.368	1119.472	0.21	-3.01	0.07	-310.5	66	-489	0	0	0	0	0	0	0	0	0	0	0	0	0	0	0	0	0	0	1084	881	0
1651657469835	-10.248	-6.832	1024.312	0.07	-1.26	0	-301.5	66	-487.5	0	0	0	0	0	0	0	0	0	0	0	0	0	0	0	0	0	0	1077	887	0
1651657469845	-21.96	-12.688	979.416	0	-0.7	0.14	-304.5	67.5	-487.5	0	0	0	0	0	0	0	0	0	0	0	0	0	0	0	0	0	0	1079	879	0
1651657469855	-18.544	1.952	1055.544	0.14	-1.61	0	-307.5	67.5	-489	0	0	0	0	0	0	0	0	0	0	0	0	0	0	0	0	0	0	1078	878	0
1651657469865	-24.4	-4.392	1034.072	-0.07	-1.26	0.07	-309	66	-490.5	0	0	0	0	0	0	0	0	0	0	0	0	0	0	0	0	0	0	1079	886	0
1651657469875	-28.792	-4.392	1005.28	-0.14	-0.28	0.21	-313.5	69	-489	0	0	0	0	0	0	0	0	0	0	0	0	0	0	0	0	0	0	1077	880	0
1651657469885	-21.472	-1.952	1003.328	0.07	-0.63	0.14	-315	64.5	-486	0	0	0	0	0	0	0	0	0	0	0	0	0	0	0	0	0	0	1077	882	0
1651657469895	-20.984	-6.344	1003.816	0.07	-0.98	0.07	-313.5	64.5	-483	0	0	0	0	0	0	0	0	0	0	0	0	0	0	0	0	0	0	1088	884	0
1651657469905	-24.4	0	1013.576	-0.07	-0.98	0.07	-313.5	67.5	-487.5	0	0	0	0	0	0	0	0	0	0	0	0	0	0	0	0	0	0	1081	882	0
1651657469916	-17.568	-1.464	1010.648	0.14	-0.98	0	-313.5	67.5	-484.5	0	0	0	0	0	0	0	0	0	0	0	0	0	0	0	0	0	0	1077	888	0
1651657469926	-20.984	-0.976	1017.48	0.07	-0.91	0.07	-313.5	73.5	-484.5	0	0	0	0	0	0	0	0	0	0	0	0	0	0	0	0	0	0	1081	878	0
1651657469936	-10.248	-6.344	1007.232	0.07	-0.98	0.21	-313.5	75	-489	0	0	0	0	0	0	0	0	0	0	0	0	0	0	0	0	0	0	1076	888	0
1651657469946	-24.888	-9.272	1005.768	0	-0.77	0.14	-310.5	67.5	-486	0	0	0	0	0	0	0	0	0	0	0	0	0	0	0	0	0	0	1070	881	0
1651657469956	-18.544	-4.88	1010.16	0	-0.77	0.14	-309	64.5	-487.5	0	0	0	0	0	0	0	0	0	0	0	0	0	0	0	0	0	0	1071	885	0
1651657469966	-20.984	-5.856	1010.16	0	-0.84	0.07	-309	66	-487.5	0	0	0	0	0	0	0	0	0	0	0	0	0	0	0	0	0	0	1087	876	0
1651657469976	-19.032	-4.392	1007.72	0.07	-0.91	0	-310.5	67.5	-481.5	0	0	0	0	0	0	0	0	0	0	0	0	0	0	0	0	0	0	1084	879	0
1651657469986	-18.056	-7.32	1023.824	0	-0.91	0.14	-313.5	69	-486	0	0	0	0	0	0	0	0	0	0	0	0	0	0	0	0	0	0	1086	884	0
1651657469996	-17.568	-6.832	1007.72	0.07	-0.7	0.14	-315	69	-489	0	0	0	0	0	0	0	0	0	0	0	0	0	0	0	0	0	0	1089	879	0
1651657470006	-20.008	-3.904	1006.744	0	-0.98	0.14	-310.5	69	-484.5	0	0	0	0	0	0	0	0	0	0	0	0	0	0	0	0	0	0	1108	871	0
1651657470016	-21.96	-7.808	1010.16	0.07	-0.84	0.07	-315	67.5	-486	0	0	0	0	0	0	0	0	0	0	0	0	0	0	0	0	0	0	1119	880	0
1651657470026	-21.96	-3.416	1013.576	0.07	-0.91	0.14	-316.5	66	-487.5	0	0	0	0	0	0	0	0	0	0	0	0	0	0	0	0	0	0	1139	893	0
1651657470036	-21.472	-6.344	1009.672	-0.14	-0.98	0.14	-312	66	-490.5	0	0	0	0	0	0	0	0	0	0	0	0	0	0	0	0	0	0	1153	902	0
1651657470046	-22.936	-5.856	1007.232	-0.07	-0.84	0.14	-310.5	66	-492	0	0	0	0	0	0	0	0	0	0	0	0	0	0	0	0	0	0	1168	919	0
1651657470056	-24.4	-3.416	1013.088	0	-0.98	0.07	-307.5	63	-490.5	0	0	0	0	0	0	0	0	0	0	0	0	0	0	0	0	0	0	1192	919	0
1651657470066	-30.256	-2.44	1016.504	0	-0.84	0.07	-307.5	63	-489	0	0	0	0	0	0	0	0	0	0	0	0	0	0	0	0	0	0	1232	958	0
1651657470076	-20.496	-6.832	1016.992	0	-1.05	0	-310.5	67.5	-486	0	0	0	0	0	0	0	0	0	0	0	0	0	0	0	0	0	0	1282	978	0
1651657470086	12.688	-15.616	931.592	-0.7	-0.14	0.07	-309	67.5	-489	0	0	0	0	0	0	0	0	0	0	0	0	0	0	0	0	0	0	1443	1027	0
1651657470096	-37.088	-6.344	1026.752	0.07	-1.47	0	-306	64.5	-495	0	0	0	0	0	0	0	0	0	0	0	0	0	0	0	0	0	0	1901	1230	0
1651657470106	-8.296	7.32	1004.792	0.14	-0.28	0.21	-307.5	61.5	-489	0	0	0	0	0	0	0	0	0	0	0	0	0	0	0	0	0	0	2642	2045	0
1651657470116	-25.864	-13.664	978.928	-0.21	-0.14	0.07	-309	67.5	-486	0	0	0	0	0	0	0	0	0	0	0	0	0	0	0	0	0	0	3406	3246	0
1651657470126	-20.984	5.368	1018.456	0.14	-1.75	0.07	-307.5	69	-484.5	0	0	0	0	0	0	0	0	0	0	0	0	0	0	0	0	0	0	3920	4058	0
1651657470136	-32.696	-7.808	1013.088	-0.07	-0.42	0.14	-310.5	64.5	-483	0	0	0	0	0	0	0	0	0	0	0	0	0	0	0	0	0	0	4049	4263	0
1651657470146	-20.008	-2.928	1012.112	0	-0.7	0	-313.5	64.5	-489	0	0	0	0	0	0	0	0	0	0	0	0	0	0	0	0	0	0	3923	4119	0
1651657470156	-23.424	-5.368	1020.896	0.07	-0.77	0.07	-315	63	-489	0	0	0	0	0	0	0	0	0	0	0	0	0	0	0	0	0	0	3613	3875	0
1651657470166	-19.032	-7.32	1012.6	-0.07	-0.91	0.07	-313.5	63	-483	0	0	0	0	0	0	0	0	0	0	0	0	0	0	0	0	0	0	3229	3576	0
1651657470176	-19.52	-4.392	1016.992	0	-1.19	0.07	-310.5	60	-483	0	0	0	0	0	0	0	0	0	0	0	0	0	0	0	0	0	0	2852	3256	0
1651657470186	-13.664	0	1014.552	0	-0.91	0.14	-313.5	66	-483	0	0	0	0	0	0	0	0	0	0	0	0	0	0	0	0	0	0	2522	2952	0
1651657470196	-28.304	-6.344	1009.672	0	-0.77	0.07	-315	75	-486	0	0	0	0	0	0	0	0	0	0	0	0	0	0	0	0	0	0	2300	2741	0
1651657470206	-14.64	0.976	1008.208	0.07	-0.98	0	-316.5	66	-486	0	0	0	0	0	0	0	0	0	0	0	0	0	0	0	0	0	0	2206	2673	0
1651657470216	-24.888	1.952	1017.968	0.07	-1.05	0.07	-313.5	64.5	-486	0	0	0	0	0	0	0	0	0	0	0	0	0	0	0	0	0	0	2209	2735	0
1651657470226	-24.4	-6.344	1013.088	0.07	-0.98	0.07	-312	66	-486	0	0	0	0	0	0	0	0	0	0	0	0	0	0	0	0	0	0	2279	2861	0
1651657470236	-21.472	-1.464	1012.112	0	-0.84	0.07	-312	67.5	-486	0	0	0	0	0	0	0	0	0	0	0	0	0	0	0	0	0	0	2369	3030	0
1651657470246	-18.544	-2.44	1010.648	0.07	-0.98	0.07	-309	66	-489	0	0	0	0	0	0	0	0	0	0	0	0	0	0	0	0	0	0	2546	3304	0
1651657470256	-18.544	-6.832	1012.112	0.07	-1.05	0	-309	70.5	-487.5	0	0	0	0	0	0	0	0	0	0	0	0	0	0	0	0	0	0	2855	3710	0
1651657470266	-21.472	-3.904	1011.624	0	-0.77	0.21	-310.5	70.5	-483	0	0	0	0	0	0	0	0	0	0	0	0	0	0	0	0	0	0	3280	4246	0
1651657470276	-17.568	-1.952	1011.136	0	-0.91	0	-313.5	64.5	-481.5	0	0	0	0	0	0	0	0	0	0	0	0	0	0	0	0	0	0	3779	4823	0
1651657470286	-24.4	-8.784	1014.552	0.21	-0.91	-0.07	-313.5	64.5	-484.5	0	0	0	0	0	0	0	0	0	0	0	0	0	0	0	0	0	0	4283	5364	0
1651657470296	-18.544	-2.928	1012.6	0.14	-0.84	0	-312	66	-490.5	0	0	0	0	0	0	0	0	0	0	0	0	0	0	0	0	0	0	4752	5852	0
1651657470306	-25.376	-3.416	1010.648	0	-0.91	0.21	-307.5	63	-489	0	0	0	0	0	0	0	0	0	0	0	0	0	0	0	0	0	0	5213	6351	0
1651657470316	-21.96	1.464	1010.16	0	-0.91	0.07	-304.5	60	-484.5	0	0	0	0	0	0	0	0	0	0	0	0	0	0	0	0	0	0	5762	7048	0
1651657470326	-23.424	-2.928	1011.624	0.07	-0.98	0	-312	67.5	-490.5	0	0	0	0	0	0	0	0	0	0	0	0	0	0	0	0	0	0	6611	8118	0
1651657470336	-18.544	-3.416	1013.576	0.14	-0.91	0.07	-315	67.5	-486	0	0	0	0	0	0	0	0	0	0	0	0	0	0	0	0	0	0	7877	9768	0
1651657470346	-17.08	-6.344	1015.528	0.07	-0.91	0.07	-318	69	-486	0	0	0	0	0	0	0	0	0	0	0	0	0	0	0	0	0	0	9544	11875	0
1651657470356	-21.472	-6.344	1013.088	0	-1.05	0.07	-312	70.5	-489	0	0	0	0	0	0	0	0	0	0	0	0	0	0	0	0	0	0	11431	14184	0
1651657470366	-25.376	-2.928	1010.648	0	-0.77	0.14	-306	67.5	-484.5	0	0	0	0	0	0	0	0	0	0	0	0	0	0	0	0	0	0	13297	16288	0
1651657470376	-26.352	-3.904	1008.208	0	-0.77	0.07	-307.5	64.5	-480	0	0	0	0	0	0	0	0	0	0	0	0	0	0	0	0	0	0	14888	17940	0
1651657470386	-21.96	-4.392	1013.088	-0.07	-0.98	0.07	-312	69	-484.5	0	0	0	0	0	0	0	0	0	0	0	0	0	0	0	0	0	0	16196	19145	0
1651657470396	-18.544	-4.88	1011.624	-0.14	-0.91	0	-312	64.5	-486	0	0	0	0	0	0	0	0	0	0	0	0	0	0	0	0	0	0	17348	20056	0
1651657470406	-20.008	-0.976	998.448	0.35	-2.1	0.07	-312	60	-483	0	0	0	0	0	0	0	0	0	0	0	0	0	0	0	0	0	0	18321	20656	0
1651657470416	-31.232	-20.008	1002.352	0.21	-1.54	1.19	-309	64.5	-483	0	0	0	0	0	0	0	0	0	0	0	0	0	0	0	0	0	0	19079	20921	0
1651657470426	-22.936	-121.512	1013.088	-0.14	0.07	-0.49	-307.5	63	-483	0	0	0	0	0	0	0	0	0	0	0	0	0	0	0	0	0	0	19718	21052	0
1651657470436	-31.72	-57.584	1005.768	-0.35	-0.84	-2.1	-309	60	-484.5	0	0	0	0	0	0	0	0	0	0	0	0	0	0	0	0	0	0	20744	21610	0
1651657470446	-17.568	7.32	1007.232	0.21	-0.91	2.1	-310.5	60	-483	0	0	0	0	0	0	0	0	0	0	0	0	0	0	0	0	0	0	22798	23371	0
1651657470456	-27.328	88.816	1008.208	0	-1.05	1.4	-315	61.5	-489	0	0	0	0	0	0	0	0	0	0	0	0	0	0	0	0	0	0	26346	26693	0
1651657470466	-15.616	107.36	1020.896	-0.28	-0.7	0.98	-313.5	61.5	-493.5	0	0	0	0	0	0	0	0	0	0	0	0	0	0	0	0	0	0	30945	30919	0
1651657470476	-21.472	-7.32	1014.552	0.07	-0.91	0.14	-304.5	67.5	-492	0	0	0	0	0	0	0	0	0	0	0	0	0	0	0	0	0	0	35694	35027	0
1651657470486	-13.664	-7.808	1007.72	0	-0.98	0	-304.5	70.5	-489	0	0	0	0	0	0	0	0	0	0	0	0	0	0	0	0	0	0	40027	38662	0
1651657470496	-18.544	-1.952	1009.184	0.21	-0.98	0.21	-309	67.5	-490.5	0	0	0	0	0	0	0	0	0	0	0	0	0	0	0	0	0	0	44238	42197	0
1651657470506	-18.056	-101.016	1009.672	0.21	-1.47	0.63	-307.5	64.5	-492	0	0	0	0	0	0	0	0	0	0	0	0	0	0	0	0	0	0	49330	46321	0
1651657470516	-9.76	-117.608	1020.408	0.21	-1.54	-3.57	-304.5	64.5	-490.5	0	0	0	0	0	0	0	0	0	0	0	0	0	0	0	0	0	0	54109	49542	0
1651657470526	-15.128	93.208	1018.456	0.56	-2.03	-4.55	-304.5	64.5	-490.5	0	0	0	0	0	0	0	0	0	0	0	0	0	0	0	0	0	0	54847	48625	0
1651657470536	-16.104	2.44	1079.456	0.14	-0.77	-4.06	-303	66	-493.5	0	0	0	0	0	0	0	0	0	0	0	0	0	0	0	0	0	0	51060	44228	0
1651657470546	-23.424	-27.816	951.112	0.49	0.84	-5.04	-303	66	-492	0	0	0	0	0	0	0	0	0	0	0	0	0	0	0	0	0	0	46390	39620	0
1651657470556	-28.304	29.768	1029.192	-0.42	-2.38	-3.36	-309	66	-489	0	0	0	0	0	0	0	0	0	0	0	0	0	0	0	0	0	0	43787	37118	0
1651657470566	-15.616	80.032	1030.656	-0.35	0.49	0.35	-312	69	-492	0	0	0	0	0	0	0	0	0	0	0	0	0	0	0	0	0	0	44580	37823	0
1651657470576	-31.232	-10.248	981.368	0	-1.4	-0.14	-312	64.5	-499.5	0	0	0	0	0	0	0	0	0	0	0	0	0	0	0	0	0	0	48278	41119	0
1651657470586	-11.712	3.904	1025.776	0.07	-1.4	0	-306	63	-499.5	0	0	0	0	0	0	0	0	0	0	0	0	0	0	0	0	0	0	53008	45123	0
1651657470596	-20.984	-4.88	1014.064	-0.14	-0.56	0.07	-300	66	-496.5	0	0	0	0	0	0	0	0	0	0	0	0	0	0	0	0	0	0	57611	48818	0
1651657470606	-25.376	-2.928	1012.112	0	-0.98	0.07	-301.5	63	-493.5	0	0	0	0	0	0	0	0	0	0	0	0	0	0	0	0	0	0	61931	52077	0
1651657470616	-20.496	-7.808	1013.088	0	-0.84	0	-307.5	64.5	-493.5	0	0	0	0	0	0	0	0	0	0	0	0	0	0	0	0	0	0	65115	54234	0
1651657470626	-26.84	-0.488	1008.208	0	-0.84	0	-309	67.5	-492	0	0	0	0	0	0	0	0	0	0	0	0	0	0	0	0	0	0	66122	54890	0
1651657470636	-21.96	-0.976	1009.672	-0.07	-0.98	0.14	-303	63	-490.5	0	0	0	0	0	0	0	0	0	0	0	0	0	0	0	0	0	0	66130	55075	0
1651657470646	-20.008	-3.416	1011.136	-0.07	-0.84	0.14	-304.5	61.5	-492	0	0	0	0	0	0	0	0	0	0	0	0	0	0	0	0	0	0	67196	57032	0
1651657470656	-23.912	-4.88	1018.456	0.14	-1.05	0.07	-312	66	-495	0	0	0	0	0	0	0	0	0	0	0	0	0	0	0	0	0	0	70798	61856	0
1651657470666	-22.936	1.464	1016.016	0	-0.98	0	-309	69	-495	0	0	0	0	0	0	0	0	0	0	0	0	0	0	0	0	0	0	77262	69853	0
1651657470676	-22.448	-3.904	1013.576	0.07	-1.19	0.07	-306	70.5	-498	0	0	0	0	0	0	0	0	0	0	0	0	0	0	0	0	0	0	87185	80837	0
1651657470686	-23.424	0.488	1013.088	0.14	-1.12	0.07	-306	69	-498	0	0	0	0	0	0	0	0	0	0	0	0	0	0	0	0	0	0	99468	93598	0
1651657470696	-19.032	-7.808	1010.648	0.14	-0.98	-0.07	-306	69	-493.5	0	0	0	0	0	0	0	0	0	0	0	0	0	0	0	0	0	0	112140	106830	0
1651657470706	-21.96	-11.712	1016.016	0	-1.19	-2.17	-306	67.5	-496.5	0	0	0	0	0	0	0	0	0	0	0	0	0	0	0	0	0	0	124290	121581	0
1651657470716	-23.912	-8.296	1013.576	-0.14	-0.56	-0.14	-303	70.5	-495	0	0	0	0	0	0	0	0	0	0	0	0	0	0	0	0	0	0	135905	140472	0
1651657470726	-24.4	-10.248	1005.768	0	-0.91	0.14	-306	70.5	-487.5	0	0	0	0	0	0	0	0	0	0	0	0	0	0	0	0	0	0	152346	175249	0
1651657470736	-22.936	-2.44	1007.232	0	-0.91	0	-306	66	-489	0	0	0	0	0	0	0	0	0	0	0	0	0	0	0	0	0	0	171156	201321	0
1651657470746	-19.032	-6.832	1010.16	-0.07	-0.84	0.07	-306	66	-493.5	0	0	0	0	0	0	0	0	0	0	0	0	0	0	0	0	0	0	174508	206070	0
1651657470757	-19.032	-4.88	1013.088	0.07	-0.84	0	-307.5	64.5	-492	0	0	0	0	0	0	0	0	0	0	0	0	0	0	0	0	0	0	173740	205588	0
1651657470767	-18.056	-7.32	1010.648	-0.07	-0.84	0.07	-307.5	63	-492	0	0	0	0	0	0	0	0	0	0	0	0	0	0	0	0	0	0	172070	204288	0
1651657470777	-19.52	0.488	1015.528	0	-0.77	0.07	-307.5	64.5	-493.5	0	0	0	0	0	0	0	0	0	0	0	0	0	0	0	0	0	0	170742	203141	0
1651657470787	-16.104	0	1001.376	0.07	-0.98	0	-309	63	-495	0	0	0	0	0	0	0	0	0	0	0	0	0	0	0	0	0	0	169927	202513	0
1651657470797	-21.472	0.976	1011.136	-0.14	-1.05	1.05	-309	61.5	-495	0	0	0	0	0	0	0	0	0	0	0	0	0	0	0	0	0	0	169453	202200	0
1651657470807	-13.664	0.488	1017.48	-0.07	-1.05	0.07	-312	69	-495	0	0	0	0	0	0	0	0	0	0	0	0	0	0	0	0	0	0	169159	202118	0
1651657470817	-20.008	-6.344	1006.744	0	-0.77	0.07	-310.5	72	-490.5	0	0	0	0	0	0	0	0	0	0	0	0	0	0	0	0	0	0	169061	202093	0
1651657470827	-17.08	-11.224	1014.552	0.14	-1.05	0.14	-304.5	66	-492	0	0	0	0	0	0	0	0	0	0	0	0	0	0	0	0	0	0	169102	202138	0
1651657470837	-24.888	-4.88	1012.6	0.14	-1.05	0	-310.5	66	-496.5	0	0	0	0	0	0	0	0	0	0	0	0	0	0	0	0	0	0	169097	202144	0
1651657470847	-21.472	-1.952	1011.136	0.07	-0.98	0.07	-310.5	67.5	-498	0	0	0	0	0	0	0	0	0	0	0	0	0	0	0	0	0	0	169052	202139	0
1651657470857	-18.056	2.44	1012.112	0	-0.91	0.07	-306	67.5	-495	0	0	0	0	0	0	0	0	0	0	0	0	0	0	0	0	0	0	169053	202219	0
1651657470867	-21.472	-1.952	1011.136	0	-0.91	0.07	-310.5	63	-492	0	0	0	0	0	0	0	0	0	0	0	0	0	0	0	0	0	0	169028	202295	0
1651657470877	-16.104	-4.392	1011.624	0	-0.98	0.07	-310.5	60	-492	0	0	0	0	0	0	0	0	0	0	0	0	0	0	0	0	0	0	169079	202409	0
1651657470887	-12.2	-5.368	1015.04	0	-0.84	0.07	-310.5	63	-493.5	0	0	0	0	0	0	0	0	0	0	0	0	0	0	0	0	0	0	169080	202509	0
1651657470897	-27.816	-0.488	1013.088	0.07	-0.84	0.07	-313.5	67.5	-496.5	0	0	0	0	0	0	0	0	0	0	0	0	0	0	0	0	0	0	169074	202642	0
1651657470907	-24.888	-1.952	1009.184	-0.21	-0.91	0.07	-303	72	-492	0	0	0	0	0	0	0	0	0	0	0	0	0	0	0	0	0	0	169043	202734	0
1651657470917	-27.816	-2.928	1011.136	0	-0.91	0	-298.5	73.5	-493.5	0	0	0	0	0	0	0	0	0	0	0	0	0	0	0	0	0	0	168937	202713	0
1651657470927	-18.544	-6.832	1009.184	0.07	-0.91	0.07	-304.5	64.5	-495	0	0	0	0	0	0	0	0	0	0	0	0	0	0	0	0	0	0	168758	202631	0
1651657470937	-15.128	-5.856	1013.088	0	-0.84	0.07	-306	63	-496.5	0	0	0	0	0	0	0	0	0	0	0	0	0	0	0	0	0	0	168497	202481	0
1651657470947	-25.376	-1.952	1013.088	0.07	-0.91	0	-306	64.5	-499.5	0	0	0	0	0	0	0	0	0	0	0	0	0	0	0	0	0	0	168253	202364	0
1651657470957	-18.544	0	1011.624	0	-0.77	0.14	-307.5	64.5	-499.5	0	0	0	0	0	0	0	0	0	0	0	0	0	0	0	0	0	0	168137	202381	0
1651657470967	-20.496	-4.88	1007.72	0	-0.91	0.07	-304.5	64.5	-496.5	0	0	0	0	0	0	0	0	0	0	0	0	0	0	0	0	0	0	168114	202491	0
1651657470977	-14.152	-7.32	1009.184	0.07	-0.98	0.07	-307.5	66	-495	0	0	0	0	0	0	0	0	0	0	0	0	0	0	0	0	0	0	168164	202615	0
1651657470987	-22.448	0	1014.552	0.07	-0.84	-0.07	-312	72	-498	0	0	0	0	0	0	0	0	0	0	0	0	0	0	0	0	0	0	168124	202638	0
1651657470997	-16.104	-4.88	1015.04	-0.07	-0.91	0	-307.5	70.5	-495	0	0	0	0	0	0	0	0	0	0	0	0	0	0	0	0	0	0	168017	202606	0
1651657471007	-21.96	-4.392	1014.552	0.07	-0.98	0	-304.5	69	-487.5	0	0	0	0	0	0	0	0	0	0	0	0	0	0	0	0	0	0	167868	202558	0
1651657471017	-15.616	23.424	1009.672	-0.07	-0.49	3.5	-300	63	-492	0	0	0	0	0	0	0	0	0	0	0	0	0	0	0	0	0	0	167705	202524	0
1651657471027	-20.984	-9.272	1020.896	-0.14	-0.77	3.64	-298.5	64.5	-499.5	0	0	0	0	0	0	0	0	0	0	0	0	0	0	0	0	0	0	167656	202575	0
1651657471037	-22.448	-3.904	1009.672	-0.14	-0.77	0.35	-303	70.5	-490.5	0	0	0	0	0	0	0	0	0	0	0	0	0	0	0	0	0	0	167639	202625	0
1651657471047	-23.424	0.488	1009.184	-0.07	-0.63	0.07	-306	69	-490.5	0	0	0	0	0	0	0	0	0	0	0	0	0	0	0	0	0	0	167607	202695	0
1651657471057	-21.472	-0.488	1008.208	0	-0.84	0.56	-304.5	64.5	-495	0	0	0	0	0	0	0	0	0	0	0	0	0	0	0	0	0	0	167591	202770	0
1651657471067	-18.544	-1.952	1009.672	-0.07	-0.98	1.19	-303	63	-493.5	0	0	0	0	0	0	0	0	0	0	0	0	0	0	0	0	0	0	167517	202779	0
1651657471077	-17.568	-6.832	1019.432	0.07	-1.05	0.91	-304.5	64.5	-495	0	0	0	0	0	0	0	0	0	0	0	0	0	0	0	0	0	0	167474	202761	0
1651657471087	-11.224	-0.488	1012.6	0	-0.91	0.21	-310.5	67.5	-496.5	0	0	0	0	0	0	0	0	0	0	0	0	0	0	0	0	0	0	167394	202734	0
1651657471097	-15.616	9.76	1017.968	0.07	-1.05	0	-310.5	67.5	-492	0	0	0	0	0	0	0	0	0	0	0	0	0	0	0	0	0	0	167306	202734	0
1651657471107	-22.448	-4.392	1006.256	0	-0.63	0.28	-307.5	67.5	-493.5	0	0	0	0	0	0	0	0	0	0	0	0	0	0	0	0	0	0	167274	202709	0
1651657471117	-24.4	1.952	1007.232	0.07	-0.91	0	-310.5	67.5	-493.5	0	0	0	0	0	0	0	0	0	0	0	0	0	0	0	0	0	0	167214	202639	0
1651657471127	-15.616	-0.976	1013.088	0	-0.91	0.07	-309	63	-492	0	0	0	0	0	0	0	0	0	0	0	0	0	0	0	0	0	0	167133	202609	0
1651657471137	-23.912	-0.488	1014.552	0	-0.77	0.21	-306	58.5	-489	0	0	0	0	0	0	0	0	0	0	0	0	0	0	0	0	0	0	167129	202578	0
1651657471147	-20.008	-12.2	1015.528	0.07	-0.77	0	-309	60	-492	0	0	0	0	0	0	0	0	0	0	0	0	0	0	0	0	0	0	167158	202635	0
1651657471157	-12.688	-8.784	1011.136	-0.14	-1.26	0.28	-310.5	63	-498	0	0	0	0	0	0	0	0	0	0	0	0	0	0	0	0	0	0	167221	202690	0
1651657471167	-19.52	16.592	1015.04	-0.42	-1.05	3.78	-307.5	63	-496.5	0	0	0	0	0	0	0	0	0	0	0	0	0	0	0	0	0	0	167281	202735	0
1651657471177	-13.176	-11.224	1019.432	-0.63	-0.91	12.95	-309	67.5	-493.5	0	0	0	0	0	0	0	0	0	0	0	0	0	0	0	0	0	0	167310	202773	0
1651657471187	2.928	-0.976	1008.208	0.14	-0.77	4.76	-310.5	69	-490.5	0	0	0	0	0	0	0	0	0	0	0	0	0	0	0	0	0	0	167278	202720	0
1651657471197	4.88	40.992	1015.528	0.42	-0.91	-6.02	-307.5	61.5	-490.5	0	0	0	0	0	0	0	0	0	0	0	0	0	0	0	0	0	0	167146	202612	0
1651657471207	-21.472	29.768	1011.136	0.28	-1.19	-4.13	-306	64.5	-489	0	0	0	0	0	0	0	0	0	0	0	0	0	0	0	0	0	0	167052	202516	0
1651657471217	-35.136	-47.336	992.592	0.07	-0.56	0.35	-304.5	63	-487.5	0	0	0	0	0	0	0	0	0	0	0	0	0	0	0	0	0	0	166970	202440	0
1651657471227	-45.384	-21.96	1018.944	-0.42	-0.7	3.99	-304.5	63	-493.5	0	0	0	0	0	0	0	0	0	0	0	0	0	0	0	0	0	0	166929	202406	0
1651657471237	-19.032	19.52	1005.768	-0.35	-0.7	6.72	-304.5	63	-492	0	0	0	0	0	0	0	0	0	0	0	0	0	0	0	0	0	0	166918	202407	0
1651657471247	-17.568	-97.6	1020.408	0.28	-1.05	-0.7	-298.5	64.5	-487.5	0	0	0	0	0	0	0	0	0	0	0	0	0	0	0	0	0	0	166910	202394	0
1651657471257	-20.984	1.952	997.96	0.35	-1.82	-7	-295.5	64.5	-489	0	0	0	0	0	0	0	0	0	0	0	0	0	0	0	0	0	0	166962	202419	0
1651657471267	-13.664	-2.928	1031.144	0.07	-1.05	-0.63	-298.5	61.5	-483	0	0	0	0	0	0	0	0	0	0	0	0	0	0	0	0	0	0	166962	202400	0
1651657471277	-16.592	-11.224	1016.016	0.21	-0.98	0	-298.5	63	-481.5	0	0	0	0	0	0	0	0	0	0	0	0	0	0	0	0	0	0	166921	202341	0
1651657471287	-13.664	-5.856	1011.624	0	-1.12	-0.07	-297	66	-484.5	0	0	0	0	0	0	0	0	0	0	0	0	0	0	0	0	0	0	166869	202256	0
1651657471297	-18.056	-15.128	1007.72	0.07	-1.05	-0.42	-301.5	70.5	-483	0	0	0	0	0	0	0	0	0	0	0	0	0	0	0	0	0	0	166755	202091	0
1651657471307	-11.224	-14.152	1014.064	0.14	-0.77	-3.15	-304.5	63	-486	0	0	0	0	0	0	0	0	0	0	0	0	0	0	0	0	0	0	166611	201942	0
1651657471317	-34.16	17.08	1014.552	-0.07	-0.63	-1.61	-301.5	61.5	-486	0	0	0	0	0	0	0	0	0	0	0	0	0	0	0	0	0	0	166505	201828	0
1651657471327	-26.84	-5.368	1013.088	0.07	-1.05	-0.14	-303	69	-486	0	0	0	0	0	0	0	0	0	0	0	0	0	0	0	0	0	0	166425	201800	0
1651657471337	-15.616	-1.464	1016.016	0	-0.77	-0.07	-306	64.5	-483	0	0	0	0	0	0	0	0	0	0	0	0	0	0	0	0	0	0	166395	201729	0
1651657471347	-26.352	-1.464	1014.064	-0.14	-0.77	0.07	-307.5	64.5	-483	0	0	0	0	0	0	0	0	0	0	0	0	0	0	0	0	0	0	166354	201677	0
1651657471357	-20.984	-2.44	1011.136	-0.14	-0.91	0.07	-306	64.5	-484.5	0	0	0	0	0	0	0	0	0	0	0	0	0	0	0	0	0	0	166331	201618	0
1651657471367	-6.344	12.2	1012.112	0.07	-0.98	0.56	-310.5	66	-490.5	0	0	0	0	0	0	0	0	0	0	0	0	0	0	0	0	0	0	166274	201541	0
1651657471377	-10.736	-3.904	1013.088	0.21	-0.98	-0.98	-309	64.5	-493.5	0	0	0	0	0	0	0	0	0	0	0	0	0	0	0	0	0	0	166257	201487	0
1651657471387	-24.888	-13.176	1012.112	0.21	-0.84	-1.82	-306	60	-492	0	0	0	0	0	0	0	0	0	0	0	0	0	0	0	0	0	0	166269	201491	0
1651657471397	-23.424	-10.248	1011.136	-0.14	-1.05	-0.42	-307.5	63	-489	0	0	0	0	0	0	0	0	0	0	0	0	0	0	0	0	0	0	166343	201537	0
1651657471407	-16.104	-7.808	1011.624	0.14	-0.91	-0.28	-310.5	67.5	-483	0	0	0	0	0	0	0	0	0	0	0	0	0	0	0	0	0	0	166427	201602	0
1651657471417	-20.008	-5.856	1007.72	0.21	-0.91	0	-307.5	66	-483	0	0	0	0	0	0	0	0	0	0	0	0	0	0	0	0	0	0	166430	201593	0
1651657471427	-25.376	1.464	1013.088	0.14	-0.98	0.14	-304.5	66	-486	0	0	0	0	0	0	0	0	0	0	0	0	0	0	0	0	0	0	166388	201521	0
1651657471437	-18.056	-1.464	1007.72	0.21	-0.98	0.14	-304.5	67.5	-487.5	0	0	0	0	0	0	0	0	0	0	0	0	0	0	0	0	0	0	166361	201462	0
1651657471447	-20.008	-0.488	1015.528	0	-0.98	0.14	-301.5	64.5	-490.5	0	0	0	0	0	0	0	0	0	0	0	0	0	0	0	0	0	0	166327	201404	0
1651657471457	-26.84	-2.44	1010.648	0	-0.91	0.07	-304.5	63	-489	0	0	0	0	0	0	0	0	0	0	0	0	0	0	0	0	0	0	166275	201347	0
1651657471467	-19.52	-1.952	1011.624	0	-0.77	-0.07	-303	64.5	-486	0	0	0	0	0	0	0	0	0	0	0	0	0	0	0	0	0	0	166232	201287	0
1651657471477	-15.128	3.416	1011.624	-0.07	-0.91	0	-301.5	64.5	-490.5	0	0	0	0	0	0	0	0	0	0	0	0	0	0	0	0	0	0	166209	201290	0
1651657471487	-24.888	-5.368	1007.232	0	-0.91	0.14	-303	66	-492	0	0	0	0	0	0	0	0	0	0	0	0	0	0	0	0	0	0	166263	201283	0
1651657471497	-19.032	-5.368	1012.112	0.07	-0.98	0.07	-309	66	-490.5	0	0	0	0	0	0	0	0	0	0	0	0	0	0	0	0	0	0	166425	201467	0
1651657471507	-20.496	-9.76	1014.064	0	-1.12	0	-312	60	-493.5	0	0	0	0	0	0	0	0	0	0	0	0	0	0	0	0	0	0	166593	201600	0
1651657471517	-18.056	-1.464	1016.504	-0.07	-1.05	-0.14	-306	61.5	-490.5	0	0	0	0	0	0	0	0	0	0	0	0	0	0	0	0	0	0	166720	201733	0
1651657471527	-17.568	0.976	1011.136	0.35	-1.33	-1.12	-306	63	-486	0	0	0	0	0	0	0	0	0	0	0	0	0	0	0	0	0	0	166929	201944	0
1651657471537	-17.08	0	1015.04	0.14	-1.12	-1.33	-306	64.5	-486	0	0	0	0	0	0	0	0	0	0	0	0	0	0	0	0	0	0	167200	202196	0
1651657471547	-23.912	-8.784	1011.136	0	-1.05	-0.77	-310.5	64.5	-492	0	0	0	0	0	0	0	0	0	0	0	0	0	0	0	0	0	0	167489	202505	0
1651657471557	-21.96	1.952	1008.208	0.14	-1.12	-0.42	-306	64.5	-493.5	0	0	0	0	0	0	0	0	0	0	0	0	0	0	0	0	0	0	167763	202816	0
1651657471567	-18.056	2.928	1012.112	0.14	-1.12	-0.21	-300	69	-492	0	0	0	0	0	0	0	0	0	0	0	0	0	0	0	0	0	0	168012	203072	0
1651657471577	-24.4	0.976	1016.016	0.07	-0.98	-0.42	-306	75	-492	0	0	0	0	0	0	0	0	0	0	0	0	0	0	0	0	0	0	168164	203240	0
1651657471587	-17.568	-10.248	1009.672	0.14	-0.91	-0.49	-309	73.5	-489	0	0	0	0	0	0	0	0	0	0	0	0	0	0	0	0	0	0	168283	203370	0
1651657471598	-19.52	-9.272	1006.744	0.07	-1.05	-0.77	-309	66	-481.5	0	0	0	0	0	0	0	0	0	0	0	0	0	0	0	0	0	0	168448	203579	0
1651657471608	-20.496	-6.344	1017.968	0	-0.98	-0.35	-309	61.5	-487.5	0	0	0	0	0	0	0	0	0	0	0	0	0	0	0	0	0	0	168696	203837	0
1651657471618	-18.544	0.976	1014.064	0	-0.84	-0.49	-309	63	-493.5	0	0	0	0	0	0	0	0	0	0	0	0	0	0	0	0	0	0	168885	204072	0
1651657471628	-14.152	-7.808	1008.208	0.07	-0.91	-0.98	-307.5	66	-487.5	0	0	0	0	0	0	0	0	0	0	0	0	0	0	0	0	0	0	168973	204159	0
1651657471638	-18.056	-5.368	1012.112	0	-0.84	-2.17	-307.5	67.5	-489	0	0	0	0	0	0	0	0	0	0	0	0	0	0	0	0	0	0	168991	204120	0
1651657471648	-22.936	-3.904	1013.088	0.21	-0.84	-2.1	-306	60	-490.5	0	0	0	0	0	0	0	0	0	0	0	0	0	0	0	0	0	0	168892	204003	0
1651657471658	-15.616	-8.296	1009.184	-0.14	-1.05	-1.05	-301.5	60	-490.5	0	0	0	0	0	0	0	0	0	0	0	0	0	0	0	0	0	0	168894	203969	0
1651657471668	-21.472	-1.952	1014.064	0.21	-1.12	-0.14	-304.5	64.5	-489	0	0	0	0	0	0	0	0	0	0	0	0	0	0	0	0	0	0	168972	204076	0
1651657471678	-20.496	-1.464	1014.064	0.07	-1.05	-0.07	-310.5	63	-489	0	0	0	0	0	0	0	0	0	0	0	0	0	0	0	0	0	0	169211	204344	0
1651657471688	-29.768	-18.056	1013.088	0.07	-0.91	-1.26	-310.5	64.5	-489	0	0	0	0	0	0	0	0	0	0	0	0	0	0	0	0	0	0	169479	204722	0
1651657471698	-20.008	0	1010.648	0.14	-0.91	-2.17	-303	70.5	-487.5	0	0	0	0	0	0	0	0	0	0	0	0	0	0	0	0	0	0	169778	205042	0
1651657471708	-21.472	4.392	1016.992	0.07	-0.91	-2.87	-303	69	-486	0	0	0	0	0	0	0	0	0	0	0	0	0	0	0	0	0	0	170018	205313	0
1651657471718	-17.568	-11.224	1012.112	0	-0.98	-1.96	-303	66	-487.5	0	0	0	0	0	0	0	0	0	0	0	0	0	0	0	0	0	0	170208	205508	0
1651657471728	-23.424	0	1012.112	-0.07	-0.84	-3.29	-304.5	69	-489	0	0	0	0	0	0	0	0	0	0	0	0	0	0	0	0	0	0	170377	205672	0
1651657471738	-21.96	2.44	1012.112	0.07	-0.84	-1.47	-307.5	69	-492	0	0	0	0	0	0	0	0	0	0	0	0	0	0	0	0	0	0	170510	205777	0
1651657471748	-23.424	-5.856	1009.184	-0.07	-0.84	-0.7	-307.5	66	-492	0	0	0	0	0	0	0	0	0	0	0	0	0	0	0	0	0	0	170653	205959	0
1651657471758	-18.056	-0.488	1013.088	0	-0.77	-0.63	-307.5	66	-487.5	0	0	0	0	0	0	0	0	0	0	0	0	0	0	0	0	0	0	170897	206244	0
1651657471768	-9.76	10.736	1014.064	0.07	-0.98	-0.84	-304.5	69	-490.5	0	0	0	0	0	0	0	0	0	0	0	0	0	0	0	0	0	0	171109	206409	0
1651657471778	-21.96	-1.464	1007.72	-0.07	-0.98	-3.15	-303	64.5	-487.5	0	0	0	0	0	0	0	0	0	0	0	0	0	0	0	0	0	0	171255	206533	0
1651657471788	-19.52	-1.952	1014.552	0.07	-0.84	-0.42	-310.5	61.5	-486	0	0	0	0	0	0	0	0	0	0	0	0	0	0	0	0	0	0	171378	206636	0
1651657471798	-17.08	-5.368	1015.528	0.14	-1.05	0	-315	66	-487.5	0	0	0	0	0	0	0	0	0	0	0	0	0	0	0	0	0	0	171423	206719	0
1651657471808	-18.544	-13.176	1015.528	0.21	-1.12	0.07	-307.5	58.5	-481.5	0	0	0	0	0	0	0	0	0	0	0	0	0	0	0	0	0	0	171500	206881	0
1651657471818	-26.352	-6.832	1016.504	0.14	-0.98	0	-307.5	61.5	-489	0	0	0	0	0	0	0	0	0	0	0	0	0	0	0	0	0	0	171632	207084	0
1651657471828	-23.424	-30.744	1011.136	0.14	-0.98	-1.61	-310.5	64.5	-489	0	0	0	0	0	0	0	0	0	0	0	0	0	0	0	0	0	0	171744	207249	0
1651657471838	-20.496	4.392	1012.6	0.07	-0.91	-4.62	-310.5	61.5	-484.5	0	0	0	0	0	0	0	0	0	0	0	0	0	0	0	0	0	0	171847	207437	0
1651657471848	-13.664	3.416	1014.064	0.14	-0.98	-0.98	-310.5	63	-490.5	0	0	0	0	0	0	0	0	0	0	0	0	0	0	0	0	0	0	171850	207464	0
1651657471858	-22.936	1.464	1008.208	0.07	-0.98	-0.21	-303	63	-486	0	0	0	0	0	0	0	0	0	0	0	0	0	0	0	0	0	0	171723	207319	0
1651657471868	-20.984	-0.976	1013.088	0.07	-0.91	-0.28	-298.5	73.5	-481.5	0	0	0	0	0	0	0	0	0	0	0	0	0	0	0	0	0	0	171560	207099	0
1651657471878	-17.08	-5.856	1014.064	0	-0.84	0	-301.5	75	-484.5	0	0	0	0	0	0	0	0	0	0	0	0	0	0	0	0	0	0	171385	206939	0
1651657471888	-22.936	-2.44	1014.064	-0.07	-0.63	0	-307.5	70.5	-487.5	0	0	0	0	0	0	0	0	0	0	0	0	0	0	0	0	0	0	171377	206897	0
1651657471898	-16.592	-4.392	1011.136	-0.21	-0.77	-0.14	-310.5	66	-490.5	0	0	0	0	0	0	0	0	0	0	0	0	0	0	0	0	0	0	171324	206840	0
1651657471908	-29.768	0.976	1013.576	0.14	-0.98	-1.54	-309	67.5	-490.5	0	0	0	0	0	0	0	0	0	0	0	0	0	0	0	0	0	0	171315	206866	0
1651657471918	-28.304	-4.88	1010.16	0.7	-1.05	-9.1	-307.5	72	-492	0	0	0	0	0	0	0	0	0	0	0	0	0	0	0	0	0	0	171301	206899	0
1651657471928	-16.104	-13.664	1012.6	0.21	-1.12	-3.85	-309	67.5	-487.5	0	0	0	0	0	0	0	0	0	0	0	0	0	0	0	0	0	0	171267	206904	0
1651657471938	-22.448	-0.976	1011.136	0.21	-0.7	-5.88	-313.5	66	-486	0	0	0	0	0	0	0	0	0	0	0	0	0	0	0	0	0	0	171187	206827	0
1651657471948	-10.248	10.736	1012.112	0.28	-0.91	-2.94	-304.5	66	-492	0	0	0	0	0	0	0	0	0	0	0	0	0	0	0	0	0	0	171045	206557	0
1651657471958	-16.592	1.952	1012.112	0	-0.91	0.21	-306	72	-490.5	0	0	0	0	0	0	0	0	0	0	0	0	0	0	0	0	0	0	170857	206163	0
1651657471968	-4.392	6.344	998.936	0.42	-0.84	0.21	-310.5	75	-486	0	0	0	0	0	0	0	0	0	0	0	0	0	0	0	0	0	0	170608	205581	0
1651657471978	-23.912	-2.44	1008.208	0.28	-0.91	-2.45	-309	69	-489	0	0	0	0	0	0	0	0	0	0	0	0	0	0	0	0	0	0	170226	204849	0
1651657471988	-27.328	-17.08	1025.288	0.21	-0.77	-1.4	-310.5	69	-493.5	0	0	0	0	0	0	0	0	0	0	0	0	0	0	0	0	0	0	170041	204592	0
1651657471998	-56.12	59.536	996.984	-1.05	-0.42	3.22	-312	72	-493.5	0	0	0	0	0	0	0	0	0	0	0	0	0	0	0	0	0	0	170105	204620	0
1651657472008	-61.488	-44.408	899.384	-2.17	0.14	54.32	-312	70.5	-493.5	0	0	0	0	0	0	0	0	0	0	0	0	0	0	0	0	0	0	170246	204755	0
1651657472018	13.664	5.856	1018.944	-1.05	-0.77	33.32	-307.5	67.5	-490.5	0	0	0	0	0	0	0	0	0	0	0	0	0	0	0	0	0	0	170332	204891	0
1651657472028	-25.376	-21.96	1000.4	0.28	-0.77	-4.2	-304.5	63	-489	0	0	0	0	0	0	0	0	0	0	0	0	0	0	0	0	0	0	170269	204865	0
1651657472038	-20.008	-2.44	1002.352	0.21	-0.77	0.07	-303	63	-489	0	0	0	0	0	0	0	0	0	0	0	0	0	0	0	0	0	0	170149	204799	0
1651657472048	-17.08	-3.416	1018.944	-0.14	-1.12	0	-309	64.5	-489	0	0	0	0	0	0	0	0	0	0	0	0	0	0	0	0	0	0	169997	204690	0
1651657472058	-21.96	-4.88	1016.016	0	-0.91	0.14	-309	63	-495	0	0	0	0	0	0	0	0	0	0	0	0	0	0	0	0	0	0	169853	204625	0
1651657472068	-15.616	-4.392	1006.744	-0.07	-0.84	0.21	-297	63	-493.5	0	0	0	0	0	0	0	0	0	0	0	0	0	0	0	0	0	0	169723	204571	0
1651657472078	-16.592	-4.88	1014.064	0.21	-1.12	0.14	-300	66	-490.5	0	0	0	0	0	0	0	0	0	0	0	0	0	0	0	0	0	0	169645	204546	0
1651657472088	-25.864	-4.392	1011.624	0.07	-0.77	0	-307.5	67.5	-492	0	0	0	0	0	0	0	0	0	0	0	0	0	0	0	0	0	0	169608	204600	0
1651657472098	-21.472	-4.88	1012.112	0.07	-0.98	0	-303	63	-487.5	0	0	0	0	0	0	0	0	0	0	0	0	0	0	0	0	0	0	169623	204707	0
1651657472108	-18.056	-6.344	1013.576	0.07	-1.05	0.07	-301.5	60	-487.5	0	0	0	0	0	0	0	0	0	0	0	0	0	0	0	0	0	0	169637	204824	0
1651657472118	-21.472	-5.368	1006.256	0.07	-0.7	0	-303	63	-489	0	0	0	0	0	0	0	0	0	0	0	0	0	0	0	0	0	0	169618	204909	0
1651657472128	-20.496	1.464	1011.624	0.07	-1.12	0	-306	63	-492	0	0	0	0	0	0	0	0	0	0	0	0	0	0	0	0	0	0	169572	204991	0
1651657472138	-17.08	-5.368	1009.672	-0.07	-0.84	0.07	-304.5	61.5	-495	0	0	0	0	0	0	0	0	0	0	0	0	0	0	0	0	0	0	169530	205024	0
1651657472148	-23.912	-0.976	1011.624	0.14	-0.7	0.07	-306	66	-490.5	0	0	0	0	0	0	0	0	0	0	0	0	0	0	0	0	0	0	169522	205104	0
1651657472158	-17.08	-2.44	1013.088	-0.21	-0.91	0	-309	66	-490.5	0	0	0	0	0	0	0	0	0	0	0	0	0	0	0	0	0	0	169555	205218	0
1651657472168	-0.488	54.656	1028.216	-0.42	-0.07	2.24	-307.5	60	-493.5	0	0	0	0	0	0	0	0	0	0	0	0	0	0	0	0	0	0	169570	205317	0
1651657472178	-28.304	1.952	1004.792	-0.07	-1.54	2.8	-304.5	60	-490.5	0	0	0	0	0	0	0	0	0	0	0	0	0	0	0	0	0	0	169615	205423	0
1651657472188	-22.448	-12.688	1015.528	0	-0.98	0.98	-306	60	-492	0	0	0	0	0	0	0	0	0	0	0	0	0	0	0	0	0	0	169617	205522	0
1651657472198	-17.568	-19.52	1012.6	0.21	-0.98	0.07	-304.5	63	-493.5	0	0	0	0	0	0	0	0	0	0	0	0	0	0	0	0	0	0	169608	205607	0
1651657472208	-18.544	-17.08	1011.136	0.14	-1.05	0.07	-310.5	66	-492	0	0	0	0	0	0	0	0	0	0	0	0	0	0	0	0	0	0	169599	205673	0
1651657472218	-21.96	-5.856	1010.16	0.14	-0.91	0	-307.5	64.5	-493.5	0	0	0	0	0	0	0	0	0	0	0	0	0	0	0	0	0	0	169551	205621	0
1651657472228	-18.056	1.952	1014.552	0.14	-0.98	0	-300	63	-490.5	0	0	0	0	0	0	0	0	0	0	0	0	0	0	0	0	0	0	169517	205608	0
1651657472238	-13.664	0.976	1011.624	0.14	-0.98	0.14	-306	61.5	-487.5	0	0	0	0	0	0	0	0	0	0	0	0	0	0	0	0	0	0	169469	205541	0
1651657472248	-19.52	-10.248	1015.528	0.07	-1.05	0	-310.5	66	-486	0	0	0	0	0	0	0	0	0	0	0	0	0	0	0	0	0	0	169430	205495	0
1651657472258	-18.056	-1.464	1016.992	0.14	-1.05	-0.07	-304.5	69	-486	0	0	0	0	0	0	0	0	0	0	0	0	0	0	0	0	0	0	169394	205452	0
1651657472268	-19.52	-8.296	1009.184	-0.07	-1.05	-1.19	-304.5	67.5	-487.5	0	0	0	0	0	0	0	0	0	0	0	0	0	0	0	0	0	0	169375	205467	0
1651657472278	-14.152	6.344	1016.504	0.07	-0.91	-0.14	-304.5	64.5	-486	0	0	0	0	0	0	0	0	0	0	0	0	0	0	0	0	0	0	169387	205512	0
1651657472288	-22.448	-4.88	1012.112	0.21	-0.84	0.07	-306	67.5	-483	0	0	0	0	0	0	0	0	0	0	0	0	0	0	0	0	0	0	169412	205547	0
1651657472298	-27.816	-2.928	1013.088	-0.07	-0.98	0.07	-306	67.5	-486	0	0	0	0	0	0	0	0	0	0	0	0	0	0	0	0	0	0	169409	205529	0
1651657472308	-17.568	-1.952	1014.064	-0.14	-0.84	0.07	-306	60	-481.5	0	0	0	0	0	0	0	0	0	0	0	0	0	0	0	0	0	0	169374	205468	0
1651657472318	-20.496	-4.88	1013.088	0	-0.84	0	-310.5	58.5	-480	0	0	0	0	0	0	0	0	0	0	0	0	0	0	0	0	0	0	169285	205356	0
1651657472328	-19.52	-9.76	1018.456	0	-0.77	0.07	-312	69	-484.5	0	0	0	0	0	0	0	0	0	0	0	0	0	0	0	0	0	0	169150	205167	0
1651657472338	-20.008	-3.416	1010.648	0.07	-1.05	0.21	-309	69	-489	0	0	0	0	0	0	0	0	0	0	0	0	0	0	0	0	0	0	168981	204949	0
1651657472348	-20.496	-5.856	1012.6	-0.07	-0.77	0.07	-304.5	60	-492	0	0	0	0	0	0	0	0	0	0	0	0	0	0	0	0	0	0	168876	204831	0
1651657472358	-25.864	-3.416	1017.968	0.14	-1.12	0.07	-307.5	67.5	-495	0	0	0	0	0	0	0	0	0	0	0	0	0	0	0	0	0	0	168877	204814	0
1651657472368	-17.08	-14.152	1009.672	0	-0.28	0.49	-309	64.5	-493.5	0	0	0	0	0	0	0	0	0	0	0	0	0	0	0	0	0	0	168931	204851	0
1651657472378	-1.464	7.808	1010.16	-0.07	-1.33	2.94	-306	58.5	-489	0	0	0	0	0	0	0	0	0	0	0	0	0	0	0	0	0	0	168991	204915	0
1651657472388	-11.224	-4.392	1002.352	-0.14	-0.63	1.12	-304.5	63	-489	0	0	0	0	0	0	0	0	0	0	0	0	0	0	0	0	0	0	169002	204888	0
1651657472398	-16.104	3.416	1016.016	-0.07	-0.77	-0.07	-309	66	-487.5	0	0	0	0	0	0	0	0	0	0	0	0	0	0	0	0	0	0	169001	204855	0
1651657472408	-29.768	-8.784	1012.112	0.21	-0.91	-0.49	-304.5	63	-487.5	0	0	0	0	0	0	0	0	0	0	0	0	0	0	0	0	0	0	168949	204770	0
1651657472418	-25.864	2.44	1016.016	-0.14	-0.98	-0.21	-303	60	-492	0	0	0	0	0	0	0	0	0	0	0	0	0	0	0	0	0	0	168857	204628	0
1651657472428	-19.52	12.688	1011.136	-0.07	-0.84	0.07	-313.5	66	-495	0	0	0	0	0	0	0	0	0	0	0	0	0	0	0	0	0	0	168724	204483	0
1651657472439	-16.592	-3.904	1015.04	0.07	-0.91	0.14	-312	73.5	-489	0	0	0	0	0	0	0	0	0	0	0	0	0	0	0	0	0	0	168590	204367	0
1651657472449	-17.568	-7.32	1008.696	0.07	-1.05	0.21	-307.5	66	-487.5	0	0	0	0	0	0	0	0	0	0	0	0	0	0	0	0	0	0	168469	204235	0
1651657472459	-17.08	-0.976	1015.04	-0.07	-0.91	0.56	-310.5	57	-486	0	0	0	0	0	0	0	0	0	0	0	0	0	0	0	0	0	0	168373	204138	0
1651657472469	-20.496	-3.416	1010.648	-0.07	-0.84	0.98	-306	58.5	-484.5	0	0	0	0	0	0	0	0	0	0	0	0	0	0	0	0	0	0	168313	204081	0
1651657472479	-20.496	-1.952	1009.184	0	-1.05	0.49	-309	61.5	-489	0	0	0	0	0	0	0	0	0	0	0	0	0	0	0	0	0	0	168294	204078	0
1651657472489	-22.448	-9.272	1015.04	0	-0.77	0.28	-310.5	64.5	-495	0	0	0	0	0	0	0	0	0	0	0	0	0	0	0	0	0	0	168309	204071	0
1651657472499	-12.2	-6.344	1007.232	0.07	-0.84	-0.21	-306	60	-489	0	0	0	0	0	0	0	0	0	0	0	0	0	0	0	0	0	0	168271	204067	0
1651657472509	-23.424	3.416	1015.528	0.14	-0.98	-0.63	-307.5	61.5	-484.5	0	0	0	0	0	0	0	0	0	0	0	0	0	0	0	0	0	0	168344	204116	0
1651657472519	-21.472	-5.368	1008.208	0.35	-0.91	-0.42	-306	67.5	-487.5	0	0	0	0	0	0	0	0	0	0	0	0	0	0	0	0	0	0	168459	204224	0
1651657472529	-17.568	-4.392	1016.504	0.07	-0.98	-0.49	-301.5	69	-486	0	0	0	0	0	0	0	0	0	0	0	0	0	0	0	0	0	0	168594	204386	0
1651657472539	-18.544	1.464	1015.04	-0.14	-0.91	-0.42	-304.5	69	-486	0	0	0	0	0	0	0	0	0	0	0	0	0	0	0	0	0	0	168656	204506	0
1651657472549	-18.544	3.904	1011.624	0	-0.91	0.07	-309	64.5	-487.5	0	0	0	0	0	0	0	0	0	0	0	0	0	0	0	0	0	0	168754	204644	0
1651657472559	-19.032	-7.32	1015.04	0	-0.98	0.14	-309	58.5	-490.5	0	0	0	0	0	0	0	0	0	0	0	0	0	0	0	0	0	0	168827	204715	0
1651657472569	-19.52	-3.904	1014.064	0	-0.91	0.07	-303	58.5	-490.5	0	0	0	0	0	0	0	0	0	0	0	0	0	0	0	0	0	0	168832	204717	0
1651657472579	-22.448	-0.976	1014.064	0	-0.77	0.14	-301.5	66	-493.5	0	0	0	0	0	0	0	0	0	0	0	0	0	0	0	0	0	0	168734	204585	0
1651657472589	-17.08	1.464	1007.232	0	-0.84	0.07	-304.5	66	-486	0	0	0	0	0	0	0	0	0	0	0	0	0	0	0	0	0	0	168634	204439	0
1651657472599	-17.568	0.488	1013.088	0	-0.98	0	-307.5	63	-486	0	0	0	0	0	0	0	0	0	0	0	0	0	0	0	0	0	0	168562	204307	0
1651657472609	-20.496	-4.392	1014.552	0.07	-1.05	0.14	-304.5	63	-492	0	0	0	0	0	0	0	0	0	0	0	0	0	0	0	0	0	0	168516	204198	0
1651657472619	-20.984	-20.008	1030.168	-0.07	-0.56	0.91	-309	66	-489	0	0	0	0	0	0	0	0	0	0	0	0	0	0	0	0	0	0	168432	204039	0
1651657472629	-7.808	13.664	1000.888	-0.28	-0.49	7.98	-312	67.5	-486	0	0	0	0	0	0	0	0	0	0	0	0	0	0	0	0	0	0	168313	203865	0
1651657472639	-0.488	36.112	983.808	-0.28	-1.26	0.98	-315	69	-490.5	0	0	0	0	0	0	0	0	0	0	0	0	0	0	0	0	0	0	168271	203755	0
1651657472649	-17.568	17.08	1013.088	-0.49	-0.77	8.82	-312	66	-492	0	0	0	0	0	0	0	0	0	0	0	0	0	0	0	0	0	0	168257	203689	0
1651657472659	-32.208	16.104	1026.264	-0.7	-0.7	10.99	-310.5	64.5	-495	0	0	0	0	0	0	0	0	0	0	0	0	0	0	0	0	0	0	168219	203555	0
1651657472669	-12.2	-7.808	1000.888	0.14	-1.05	4.48	-312	66	-496.5	0	0	0	0	0	0	0	0	0	0	0	0	0	0	0	0	0	0	168061	203397	0
1651657472679	-15.616	-5.856	1015.528	-0.28	-0.84	1.54	-306	66	-492	0	0	0	0	0	0	0	0	0	0	0	0	0	0	0	0	0	0	167859	203184	0
1651657472689	-20.496	-14.64	1016.504	-0.07	-1.33	1.96	-303	66	-489	0	0	0	0	0	0	0	0	0	0	0	0	0	0	0	0	0	0	167622	202949	0
1651657472699	-20.984	4.392	1016.016	0	-0.7	0.28	-304.5	66	-489	0	0	0	0	0	0	0	0	0	0	0	0	0	0	0	0	0	0	167385	202732	0
1651657472709	-19.032	-29.28	1017.48	-0.07	-0.84	1.05	-300	66	-486	0	0	0	0	0	0	0	0	0	0	0	0	0	0	0	0	0	0	167213	202628	0
1651657472719	-15.616	0.976	1009.672	0.14	-0.84	0.07	-307.5	61.5	-484.5	0	0	0	0	0	0	0	0	0	0	0	0	0	0	0	0	0	0	167120	202582	0
1651657472729	-24.888	-2.44	1010.648	0	-0.91	0.07	-312	58.5	-486	0	0	0	0	0	0	0	0	0	0	0	0	0	0	0	0	0	0	167080	202574	0
1651657472739	-21.96	0	1014.064	0	-1.05	0.14	-304.5	58.5	-486	0	0	0	0	0	0	0	0	0	0	0	0	0	0	0	0	0	0	167039	202567	0
1651657472749	-20.496	-4.88	1010.16	0.14	-0.98	0.07	-304.5	63	-484.5	0	0	0	0	0	0	0	0	0	0	0	0	0	0	0	0	0	0	167018	202562	0
1651657472759	-22.448	-6.832	1011.624	0.14	-1.12	0	-307.5	64.5	-487.5	0	0	0	0	0	0	0	0	0	0	0	0	0	0	0	0	0	0	166980	202538	0
1651657472769	-18.056	-7.808	1015.528	0.28	-0.91	-0.21	-309	66	-492	0	0	0	0	0	0	0	0	0	0	0	0	0	0	0	0	0	0	166976	202451	0
1651657472779	-16.104	-6.832	1016.504	0.07	-0.98	-0.98	-307.5	64.5	-493.5	0	0	0	0	0	0	0	0	0	0	0	0	0	0	0	0	0	0	166989	202416	0
1651657472789	-21.96	-4.88	1015.04	-0.21	-0.84	-0.42	-313.5	60	-492	0	0	0	0	0	0	0	0	0	0	0	0	0	0	0	0	0	0	167029	202401	0
1651657472799	-18.056	-2.928	1014.064	0	-0.98	0	-315	63	-487.5	0	0	0	0	0	0	0	0	0	0	0	0	0	0	0	0	0	0	167013	202362	0
1651657472809	-17.08	-8.296	1014.552	0	-0.77	0.07	-306	63	-486	0	0	0	0	0	0	0	0	0	0	0	0	0	0	0	0	0	0	166926	202246	0
1651657472819	-23.912	-12.2	1010.16	-0.07	-0.84	-0.07	-307.5	63	-484.5	0	0	0	0	0	0	0	0	0	0	0	0	0	0	0	0	0	0	166774	202097	0
1651657472829	-24.4	-0.488	1012.6	-0.14	-0.77	0.07	-312	64.5	-487.5	0	0	0	0	0	0	0	0	0	0	0	0	0	0	0	0	0	0	166531	201902	0
1651657472839	-24.888	-3.904	1013.088	-0.14	-0.84	0.07	-306	61.5	-487.5	0	0	0	0	0	0	0	0	0	0	0	0	0	0	0	0	0	0	166241	201722	0
1651657472849	-12.688	-3.904	1012.112	-0.07	-0.77	0.21	-309	60	-489	0	0	0	0	0	0	0	0	0	0	0	0	0	0	0	0	0	0	166031	201587	0
1651657472859	-17.568	0	1012.6	-0.07	-0.84	0.49	-313.5	67.5	-489	0	0	0	0	0	0	0	0	0	0	0	0	0	0	0	0	0	0	165817	201465	0
1651657472869	-18.544	-5.368	1019.92	0	-0.98	0.84	-309	67.5	-486	0	0	0	0	0	0	0	0	0	0	0	0	0	0	0	0	0	0	165704	201406	0
1651657472879	-22.936	-8.296	1010.648	0	-0.98	0.14	-307.5	64.5	-490.5	0	0	0	0	0	0	0	0	0	0	0	0	0	0	0	0	0	0	165608	201357	0
1651657472889	-22.936	-5.368	1011.136	0	-0.98	0.14	-310.5	69	-493.5	0	0	0	0	0	0	0	0	0	0	0	0	0	0	0	0	0	0	165574	201317	0
1651657472899	-19.52	-8.296	1011.624	0.28	-0.77	0	-307.5	69	-495	0	0	0	0	0	0	0	0	0	0	0	0	0	0	0	0	0	0	165493	201291	0
1651657472909	-18.544	-3.904	1004.792	0	-1.05	0	-304.5	66	-496.5	0	0	0	0	0	0	0	0	0	0	0	0	0	0	0	0	0	0	165423	201274	0
1651657472919	-22.936	-2.928	1013.576	-0.07	-1.05	0.07	-306	66	-495	0	0	0	0	0	0	0	0	0	0	0	0	0	0	0	0	0	0	165376	201267	0
1651657472929	-22.448	-5.856	1017.48	0.21	-0.98	-0.14	-304.5	67.5	-490.5	0	0	0	0	0	0	0	0	0	0	0	0	0	0	0	0	0	0	165298	201233	0
1651657472939	-27.328	-10.736	1010.16	0.21	-0.91	-1.12	-304.5	66	-486	0	0	0	0	0	0	0	0	0	0	0	0	0	0	0	0	0	0	165202	201134	0
1651657472949	-24.4	-4.392	1015.528	0.21	-1.05	-2.59	-309	61.5	-480	0	0	0	0	0	0	0	0	0	0	0	0	0	0	0	0	0	0	165012	200962	0
1651657472959	-25.376	2.44	1011.136	-0.07	-0.91	-0.42	-309	63	-480	0	0	0	0	0	0	0	0	0	0	0	0	0	0	0	0	0	0	164884	200793	0
1651657472969	-18.056	4.392	1011.136	0	-0.84	0.21	-307.5	67.5	-492	0	0	0	0	0	0	0	0	0	0	0	0	0	0	0	0	0	0	164785	200587	0
1651657472979	-23.424	-4.392	1016.504	-0.07	-0.91	0.07	-304.5	64.5	-495	0	0	0	0	0	0	0	0	0	0	0	0	0	0	0	0	0	0	164756	200485	0
1651657472989	-17.08	-2.928	1010.16	-0.07	-0.91	0.07	-303	64.5	-496.5	0	0	0	0	0	0	0	0	0	0	0	0	0	0	0	0	0	0	164755	200453	0
1651657472999	-13.664	-3.904	1010.16	-0.07	-0.77	0.14	-306	64.5	-495	0	0	0	0	0	0	0	0	0	0	0	0	0	0	0	0	0	0	164772	200461	0
1651657473009	-14.152	-2.44	1011.136	0	-0.77	0.14	-300	64.5	-486	0	0	0	0	0	0	0	0	0	0	0	0	0	0	0	0	0	0	164836	200499	0
1651657473019	-26.84	-1.464	1019.92	0	-0.91	0.07	-303	58.5	-484.5	0	0	0	0	0	0	0	0	0	0	0	0	0	0	0	0	0	0	164923	200570	0
1651657473029	-25.376	-3.904	1020.408	0.28	-0.91	0.07	-307.5	61.5	-489	0	0	0	0	0	0	0	0	0	0	0	0	0	0	0	0	0	0	164975	200613	0
1651657473039	-20.496	-2.928	1014.064	-0.07	-1.05	0.07	-307.5	66	-489	0	0	0	0	0	0	0	0	0	0	0	0	0	0	0	0	0	0	165036	200643	0
1651657473049	-23.424	-3.904	1014.552	-0.07	-0.77	0.07	-307.5	66	-484.5	0	0	0	0	0	0	0	0	0	0	0	0	0	0	0	0	0	0	165090	200636	0
1651657473059	-20.984	0	1011.136	0.07	-0.91	0.07	-309	66	-490.5	0	0	0	0	0	0	0	0	0	0	0	0	0	0	0	0	0	0	165200	200655	0
1651657473069	-28.792	-3.904	1016.504	0.07	-0.98	0.14	-307.5	66	-492	0	0	0	0	0	0	0	0	0	0	0	0	0	0	0	0	0	0	165284	200698	0
1651657473079	-22.936	-4.88	1012.6	0.14	-0.91	0.14	-307.5	66	-489	0	0	0	0	0	0	0	0	0	0	0	0	0	0	0	0	0	0	165352	200752	0
1651657473089	-18.544	-7.32	1014.552	0.07	-0.98	0.07	-309	66	-484.5	0	0	0	0	0	0	0	0	0	0	0	0	0	0	0	0	0	0	165445	200845	0
1651657473099	-19.032	-6.344	1013.088	0.14	-0.91	0	-306	67.5	-487.5	0	0	0	0	0	0	0	0	0	0	0	0	0	0	0	0	0	0	165500	200949	0
1651657473109	-18.056	-4.88	1013.576	0	-0.84	-0.07	-304.5	67.5	-487.5	0	0	0	0	0	0	0	0	0	0	0	0	0	0	0	0	0	0	165554	201046	0
1651657473119	-18.056	-9.76	1012.112	0.07	-0.84	-0.07	-307.5	63	-486	0	0	0	0	0	0	0	0	0	0	0	0	0	0	0	0	0	0	165520	201079	0
1651657473129	-17.08	-8.784	1011.624	-0.07	-0.77	0	-307.5	60	-484.5	0	0	0	0	0	0	0	0	0	0	0	0	0	0	0	0	0	0	165492	201129	0
1651657473139	-24.4	0	1008.208	0.21	-0.77	0	-306	64.5	-487.5	0	0	0	0	0	0	0	0	0	0	0	0	0	0	0	0	0	0	165448	201144	0
1651657473149	-23.424	-1.952	1003.816	0.21	-0.63	0	-304.5	66	-487.5	0	0	0	0	0	0	0	0	0	0	0	0	0	0	0	0	0	0	165444	201176	0
1651657473159	-17.568	-1.952	1011.624	-0.07	-1.05	0.07	-304.5	61.5	-486	0	0	0	0	0	0	0	0	0	0	0	0	0	0	0	0	0	0	165419	201189	0
1651657473169	-20.008	3.904	1011.624	-0.07	-0.98	0.14	-307.5	58.5	-486	0	0	0	0	0	0	0	0	0	0	0	0	0	0	0	0	0	0	165378	201153	0
1651657473179	-25.376	-15.616	1017.48	-0.07	-1.26	0.07	-310.5	63	-483	0	0	0	0	0	0	0	0	0	0	0	0	0	0	0	0	0	0	165304	201066	0
1651657473189	-18.056	8.296	1019.432	0.07	-0.7	0.35	-309	66	-486	0	0	0	0	0	0	0	0	0	0	0	0	0	0	0	0	0	0	165251	201039	0
1651657473199	-25.376	-5.368	1010.16	-0.07	-0.56	0	-306	63	-493.5	0	0	0	0	0	0	0	0	0	0	0	0	0	0	0	0	0	0	165201	201027	0
1651657473209	-21.96	-3.416	1008.208	-0.07	-0.84	0	-306	63	-495	0	0	0	0	0	0	0	0	0	0	0	0	0	0	0	0	0	0	165156	201025	0
1651657473219	-20.496	-7.32	1015.04	-0.07	-0.98	-0.14	-309	67.5	-487.5	0	0	0	0	0	0	0	0	0	0	0	0	0	0	0	0	0	0	165119	201025	0
1651657473229	-16.592	-13.664	1010.648	0	-0.98	-0.07	-309	67.5	-486	0	0	0	0	0	0	0	0	0	0	0	0	0	0	0	0	0	0	165116	201049	0
1651657473239	-22.448	1.952	1013.088	-0.07	-0.91	-0.07	-313.5	66	-492	0	0	0	0	0	0	0	0	0	0	0	0	0	0	0	0	0	0	165135	201108	0
1651657473249	-14.64	-5.368	1013.576	-0.07	-0.91	0.07	-315	61.5	-490.5	0	0	0	0	0	0	0	0	0	0	0	0	0	0	0	0	0	0	165174	201148	0
1651657473259	-24.4	1.464	1010.648	0	-0.77	0.28	-309	58.5	-490.5	0	0	0	0	0	0	0	0	0	0	0	0	0	0	0	0	0	0	165203	201235	0
1651657473269	-25.864	-9.272	1011.136	0.14	-0.91	0.63	-306	61.5	-490.5	0	0	0	0	0	0	0	0	0	0	0	0	0	0	0	0	0	0	165267	201290	0
1651657473279	-25.376	-6.344	1018.456	0.14	-0.7	0.28	-309	61.5	-481.5	0	0	0	0	0	0	0	0	0	0	0	0	0	0	0	0	0	0	165307	201345	0
1651657473289	-19.032	-3.416	1011.136	-0.07	-1.05	0.14	-312	63	-483	0	0	0	0	0	0	0	0	0	0	0	0	0	0	0	0	0	0	165349	201370	0
1651657473299	-17.568	-3.416	1010.16	-0.07	-0.77	0.07	-306	63	-486	0	0	0	0	0	0	0	0	0	0	0	0	0	0	0	0	0	0	165369	201385	0
1651657473309	-16.592	-0.488	1013.576	0.07	-0.98	0.14	-307.5	60	-492	0	0	0	0	0	0	0	0	0	0	0	0	0	0	0	0	0	0	165412	201403	0
1651657473319	-16.104	5.856	1016.504	-0.07	-0.91	1.33	-310.5	64.5	-493.5	0	0	0	0	0	0	0	0	0	0	0	0	0	0	0	0	0	0	165466	201401	0
1651657473329	-20.984	-5.856	1012.6	-0.07	-0.91	2.52	-315	69	-493.5	0	0	0	0	0	0	0	0	0	0	0	0	0	0	0	0	0	0	165518	201394	0
1651657473339	-19.032	-9.272	1006.744	-0.07	-0.84	1.12	-309	61.5	-489	0	0	0	0	0	0	0	0	0	0	0	0	0	0	0	0	0	0	165558	201387	0
1651657473349	-28.304	10.248	1011.624	-0.28	-0.77	0.63	-304.5	63	-484.5	0	0	0	0	0	0	0	0	0	0	0	0	0	0	0	0	0	0	165548	201382	0
1651657473359	-22.448	7.32	1015.04	0.56	-1.33	0.28	-309	61.5	-480	0	0	0	0	0	0	0	0	0	0	0	0	0	0	0	0	0	0	165516	201382	0
1651657473369	-17.08	-15.128	1011.136	-0.21	-0.77	-0.21	-309	58.5	-486	0	0	0	0	0	0	0	0	0	0	0	0	0	0	0	0	0	0	165477	201382	0
1651657473379	-18.056	-3.904	1008.696	0	-0.84	0.21	-306	63	-489	0	0	0	0	0	0	0	0	0	0	0	0	0	0	0	0	0	0	165446	201373	0
1651657473389	-10.736	0.488	1011.136	-0.14	-1.12	0.28	-310.5	66	-489	0	0	0	0	0	0	0	0	0	0	0	0	0	0	0	0	0	0	165387	201353	0
1651657473399	-24.888	-10.248	1013.576	0.14	-0.98	0.28	-304.5	61.5	-484.5	0	0	0	0	0	0	0	0	0	0	0	0	0	0	0	0	0	0	165369	201338	0
1651657473409	-14.64	2.928	1009.184	0.21	-0.77	0.14	-306	63	-489	0	0	0	0	0	0	0	0	0	0	0	0	0	0	0	0	0	0	165353	201297	0
1651657473419	-22.936	0	1009.672	0.07	-0.98	0.07	-310.5	69	-486	0	0	0	0	0	0	0	0	0	0	0	0	0	0	0	0	0	0	165341	201272	0
1651657473429	-26.84	-9.76	1009.184	0	-0.84	0.14	-307.5	63	-483	0	0	0	0	0	0	0	0	0	0	0	0	0	0	0	0	0	0	165321	201249	0
1651657473439	-20.984	-2.44	1015.04	0.07	-0.98	0.07	-307.5	61.5	-489	0	0	0	0	0	0	0	0	0	0	0	0	0	0	0	0	0	0	165292	201221	0
1651657473449	-17.568	-6.832	1015.04	-0.07	-0.91	0.14	-313.5	58.5	-489	0	0	0	0	0	0	0	0	0	0	0	0	0	0	0	0	0	0	165300	201223	0
1651657473459	-19.032	-1.464	1009.184	-0.07	-0.84	0	-310.5	58.5	-492	0	0	0	0	0	0	0	0	0	0	0	0	0	0	0	0	0	0	165263	201200	0
1651657473469	-26.84	0.488	1009.672	-0.07	-0.91	0	-304.5	63	-493.5	0	0	0	0	0	0	0	0	0	0	0	0	0	0	0	0	0	0	165237	201193	0
1651657473479	-15.616	-0.488	1011.624	0.07	-0.91	0.07	-306	60	-486	0	0	0	0	0	0	0	0	0	0	0	0	0	0	0	0	0	0	165206	201185	0
1651657473489	-23.912	-2.44	1006.744	0.07	-0.84	0	-306	64.5	-487.5	0	0	0	0	0	0	0	0	0	0	0	0	0	0	0	0	0	0	165189	201199	0
1651657473499	-20.496	-7.32	1015.528	0.07	-0.98	0.07	-307.5	70.5	-484.5	0	0	0	0	0	0	0	0	0	0	0	0	0	0	0	0	0	0	165182	201185	0
1651657473509	-16.592	-8.296	1012.112	0.07	-0.98	0	-310.5	67.5	-478.5	0	0	0	0	0	0	0	0	0	0	0	0	0	0	0	0	0	0	165193	201153	0
1651657473519	-17.568	-8.296	1016.992	0	-1.12	0.07	-303	63	-486	0	0	0	0	0	0	0	0	0	0	0	0	0	0	0	0	0	0	165170	201146	0
1651657473529	-20.008	-12.2	1012.6	0.21	-0.7	-0.07	-300	58.5	-492	0	0	0	0	0	0	0	0	0	0	0	0	0	0	0	0	0	0	165149	201124	0
1651657473539	-17.568	0	1004.792	-0.28	-0.84	0	-304.5	58.5	-484.5	0	0	0	0	0	0	0	0	0	0	0	0	0	0	0	0	0	0	165091	201091	0
1651657473549	-18.544	-7.32	1014.064	-0.21	-0.91	-0.14	-312	61.5	-484.5	0	0	0	0	0	0	0	0	0	0	0	0	0	0	0	0	0	0	165042	201047	0
1651657473559	-20.984	7.808	1016.504	-0.42	-0.63	0	-310.5	66	-489	0	0	0	0	0	0	0	0	0	0	0	0	0	0	0	0	0	0	164986	201038	0
1651657473569	-26.352	55.144	1012.6	-0.49	-0.56	1.54	-309	67.5	-493.5	0	0	0	0	0	0	0	0	0	0	0	0	0	0	0	0	0	0	164956	201030	0
1651657473579	-19.032	2.928	1043.344	-0.28	-1.05	3.01	-306	63	-490.5	0	0	0	0	0	0	0	0	0	0	0	0	0	0	0	0	0	0	164953	201055	0
1651657473589	-26.84	-71.248	1017.48	-0.07	-0.98	-1.61	-307.5	58.5	-487.5	0	0	0	0	0	0	0	0	0	0	0	0	0	0	0	0	0	0	164946	201053	0
1651657473599	-20.496	-2.928	1014.552	-0.07	-0.56	0.21	-313.5	60	-484.5	0	0	0	0	0	0	0	0	0	0	0	0	0	0	0	0	0	0	164964	201051	0
1651657473609	-16.104	9.76	1015.04	-0.07	-0.91	0.28	-310.5	66	-487.5	0	0	0	0	0	0	0	0	0	0	0	0	0	0	0	0	0	0	165023	201100	0
1651657473619	-16.592	-7.32	1014.064	0.14	-1.05	0.7	-306	72	-493.5	0	0	0	0	0	0	0	0	0	0	0	0	0	0	0	0	0	0	165088	201120	0
1651657473629	-20.984	-4.88	1008.696	0.21	-0.84	0.14	-306	67.5	-487.5	0	0	0	0	0	0	0	0	0	0	0	0	0	0	0	0	0	0	165150	201168	0
1651657473639	-18.544	-3.904	1011.624	0.35	-1.19	0.14	-309	63	-483	0	0	0	0	0	0	0	0	0	0	0	0	0	0	0	0	0	0	165228	201195	0
1651657473649	-19.032	-34.648	1016.016	0.35	-0.91	-0.63	-312	64.5	-484.5	0	0	0	0	0	0	0	0	0	0	0	0	0	0	0	0	0	0	165292	201216	0
1651657473659	-22.936	-6.344	1010.16	-0.21	-0.77	-0.98	-306	57	-481.5	0	0	0	0	0	0	0	0	0	0	0	0	0	0	0	0	0	0	165323	201235	0
1651657473669	-24.888	46.36	1011.136	-0.07	-0.84	-1.12	-304.5	52.5	-486	0	0	0	0	0	0	0	0	0	0	0	0	0	0	0	0	0	0	165334	201210	0
1651657473679	-13.176	-5.368	1010.16	-0.14	-0.91	-0.35	-304.5	57	-490.5	0	0	0	0	0	0	0	0	0	0	0	0	0	0	0	0	0	0	165303	201190	0
1651657473689	-15.128	3.904	1012.6	-0.28	-0.56	2.17	-301.5	61.5	-489	0	0	0	0	0	0	0	0	0	0	0	0	0	0	0	0	0	0	165287	201155	0
1651657473699	-24.4	-26.84	1009.672	0.28	-1.05	1.54	-300	61.5	-484.5	0	0	0	0	0	0	0	0	0	0	0	0	0	0	0	0	0	0	165271	201123	0
1651657473709	-21.472	-7.32	1008.696	0.49	-1.12	0.28	-303	63	-481.5	0	0	0	0	0	0	0	0	0	0	0	0	0	0	0	0	0	0	165271	201113	0
1651657473719	-20.984	-99.064	1012.112	0.35	-1.47	1.12	-312	66	-483	0	0	0	0	0	0	0	0	0	0	0	0	0	0	0	0	0	0	165244	201066	0
1651657473729	-16.104	-50.264	1020.408	-0.21	-1.19	5.6	-310.5	66	-483	0	0	0	0	0	0	0	0	0	0	0	0	0	0	0	0	0	0	165214	201020	0
1651657473739	-23.912	103.456	1029.68	-1.47	0.07	3.71	-306	66	-486	0	0	0	0	0	0	0	0	0	0	0	0	0	0	0	0	0	0	165175	200957	0
1651657473749	-43.432	2.44	1008.696	-0.7	-0.42	0.84	-309	66	-486	0	0	0	0	0	0	0	0	0	0	0	0	0	0	0	0	0	0	165113	200908	0
1651657473759	-27.816	4.392	1008.696	-0.14	-1.33	-0.14	-300	58.5	-483	0	0	0	0	0	0	0	0	0	0	0	0	0	0	0	0	0	0	165039	200875	0
1651657473769	-31.72	29.768	1013.576	0.63	-1.05	-3.01	-300	55.5	-487.5	0	0	0	0	0	0	0	0	0	0	0	0	0	0	0	0	0	0	164987	200832	0
1651657473779	-23.912	-43.432	1024.312	-0.63	-0.63	-0.42	-307.5	64.5	-487.5	0	0	0	0	0	0	0	0	0	0	0	0	0	0	0	0	0	0	164964	200824	0
1651657473789	-30.256	-51.728	1000.4	-0.56	-0.56	-0.56	-306	63	-486	0	0	0	0	0	0	0	0	0	0	0	0	0	0	0	0	0	0	164921	200821	0
1651657473799	-7.32	8.784	1011.136	0.28	-1.05	1.05	-303	61.5	-487.5	0	0	0	0	0	0	0	0	0	0	0	0	0	0	0	0	0	0	164930	200811	0
1651657473809	-8.784	1.464	1019.92	-0.14	-0.84	2.8	-304.5	63	-486	0	0	0	0	0	0	0	0	0	0	0	0	0	0	0	0	0	0	164963	200827	0
1651657473819	50.752	-41.48	972.584	0.42	0	0.91	-303	60	-484.5	0	0	0	0	0	0	0	0	0	0	0	0	0	0	0	0	0	0	165002	200845	0
1651657473829	-71.248	-1.464	1057.984	0.14	-0.07	0.21	-301.5	61.5	-486	0	0	0	0	0	0	0	0	0	0	0	0	0	0	0	0	0	0	165022	200839	0
1651657473839	-110.776	50.752	998.936	0.14	1.54	0.35	-303	61.5	-484.5	0	0	0	0	0	0	0	0	0	0	0	0	0	0	0	0	0	0	165037	200827	0
1651657473849	10.248	36.112	1021.384	0.14	0.35	0.56	-303	61.5	-486	0	0	0	0	0	0	0	0	0	0	0	0	0	0	0	0	0	0	165071	200822	0
1651657473859	1.464	21.472	1007.72	0	0.42	1.26	-303	69	-492	0	0	0	0	0	0	0	0	0	0	0	0	0	0	0	0	0	0	165079	200834	0
1651657473869	25.376	29.768	987.712	-0.14	-0.35	1.47	-303	66	-489	0	0	0	0	0	0	0	0	0	0	0	0	0	0	0	0	0	0	165107	200826	0
1651657473879	-24.4	7.32	992.592	-0.21	-0.28	0.77	-306	55.5	-483	0	0	0	0	0	0	0	0	0	0	0	0	0	0	0	0	0	0	165108	200819	0
1651657473889	0.488	8.296	1000.888	0.49	-1.4	0.21	-307.5	52.5	-481.5	0	0	0	0	0	0	0	0	0	0	0	0	0	0	0	0	0	0	165126	200817	0
1651657473899	-19.032	-10.248	1054.568	-0.28	-1.33	-0.77	-303	55.5	-486	0	0	0	0	0	0	0	0	0	0	0	0	0	0	0	0	0	0	165128	200825	0
1651657473909	-30.744	-27.816	979.416	-0.14	-0.42	-0.21	-301.5	60	-484.5	0	0	0	0	0	0	0	0	0	0	0	0	0	0	0	0	0	0	165160	200845	0
1651657473919	-13.176	-23.424	1016.992	0	-1.12	-0.07	-304.5	63	-484.5	0	0	0	0	0	0	0	0	0	0	0	0	0	0	0	0	0	0	165212	200859	0
1651657473929	-26.352	-14.64	1010.16	0	-0.63	0.21	-304.5	61.5	-483	0	0	0	0	0	0	0	0	0	0	0	0	0	0	0	0	0	0	165237	200890	0
1651657473939	-28.792	-14.64	1006.256	0.07	-0.91	0.07	-307.5	64.5	-483	0	0	0	0	0	0	0	0	0	0	0	0	0	0	0	0	0	0	165270	200895	0
1651657473949	-7.32	3.416	1019.432	0.07	-1.19	0.21	-307.5	64.5	-484.5	0	0	0	0	0	0	0	0	0	0	0	0	0	0	0	0	0	0	165265	200889	0
1651657473959	-27.816	5.368	1014.064	0.07	-0.98	0.21	-306	63	-484.5	0	0	0	0	0	0	0	0	0	0	0	0	0	0	0	0	0	0	165249	200875	0
1651657473969	-20.984	2.44	1009.184	0	-0.98	0	-310.5	64.5	-489	0	0	0	0	0	0	0	0	0	0	0	0	0	0	0	0	0	0	165194	200803	0
1651657473979	-24.888	9.76	1009.672	-0.07	-0.91	0.21	-313.5	63	-489	0	0	0	0	0	0	0	0	0	0	0	0	0	0	0	0	0	0	165134	200746	0
1651657473989	-22.448	-1.952	1009.184	-0.14	-0.63	0.14	-312	63	-483	0	0	0	0	0	0	0	0	0	0	0	0	0	0	0	0	0	0	165042	200686	0
1651657473999	-19.032	-8.784	1014.064	-0.07	-1.12	0.07	-310.5	60	-481.5	0	0	0	0	0	0	0	0	0	0	0	0	0	0	0	0	0	0	164993	200663	0
1651657474009	-20.496	-16.104	1011.624	-0.07	-0.91	0.07	-312	61.5	-483	0	0	0	0	0	0	0	0	0	0	0	0	0	0	0	0	0	0	164912	200607	0
1651657474019	-15.128	-17.08	1013.088	-0.07	-1.19	0	-306	61.5	-481.5	0	0	0	0	0	0	0	0	0	0	0	0	0	0	0	0	0	0	164818	200515	0
1651657474029	-17.08	-23.424	1014.064	-0.07	-0.91	0.14	-301.5	61.5	-481.5	0	0	0	0	0	0	0	0	0	0	0	0	0	0	0	0	0	0	164732	200444	0
1651657474039	-17.568	-15.616	1011.624	0.35	-0.98	0.07	-301.5	67.5	-484.5	0	0	0	0	0	0	0	0	0	0	0	0	0	0	0	0	0	0	164700	200397	0
1651657474049	-19.52	-5.368	1019.92	0	-0.98	0	-307.5	63	-489	0	0	0	0	0	0	0	0	0	0	0	0	0	0	0	0	0	0	164671	200372	0
1651657474059	-23.912	1.952	1011.624	0.07	-0.91	0	-309	63	-487.5	0	0	0	0	0	0	0	0	0	0	0	0	0	0	0	0	0	0	164692	200378	0
1651657474069	-21.472	13.176	1015.04	0.14	-0.98	0	-301.5	66	-486	0	0	0	0	0	0	0	0	0	0	0	0	0	0	0	0	0	0	164725	200385	0
1651657474079	-22.936	13.176	1011.624	0.07	-0.84	0.07	-303	63	-486	0	0	0	0	0	0	0	0	0	0	0	0	0	0	0	0	0	0	164761	200432	0
1651657474089	-21.96	12.2	1012.6	0	-1.05	0.21	-303	66	-481.5	0	0	0	0	0	0	0	0	0	0	0	0	0	0	0	0	0	0	164822	200501	0
1651657474099	-17.08	4.392	1014.064	-0.07	-0.84	0.28	-309	66	-481.5	0	0	0	0	0	0	0	0	0	0	0	0	0	0	0	0	0	0	164872	200567	0
1651657474109	-21.472	6.344	1014.552	0	-0.84	0.28	-315	64.5	-484.5	0	0	0	0	0	0	0	0	0	0	0	0	0	0	0	0	0	0	164911	200577	0
1651657474120	-19.032	-9.76	1012.6	-0.07	-0.84	0.21	-313.5	64.5	-483	0	0	0	0	0	0	0	0	0	0	0	0	0	0	0	0	0	0	164921	200608	0
1651657474130	-20.496	-11.224	1008.696	0	-1.05	0	-312	61.5	-480	0	0	0	0	0	0	0	0	0	0	0	0	0	0	0	0	0	0	164914	200616	0
1651657474140	-19.52	-18.544	1011.136	-0.21	-0.98	0	-306	61.5	-484.5	0	0	0	0	0	0	0	0	0	0	0	0	0	0	0	0	0	0	164917	200612	0
1651657474150	-19.032	-17.568	1011.136	0.28	-0.84	0	-303	61.5	-484.5	0	0	0	0	0	0	0	0	0	0	0	0	0	0	0	0	0	0	164885	200587	0
1651657474160	-24.4	-3.904	1011.136	0.14	-0.84	-0.07	-303	60	-483	0	0	0	0	0	0	0	0	0	0	0	0	0	0	0	0	0	0	164875	200577	0
1651657474170	-19.032	-7.808	1012.6	-0.14	-0.91	0.07	-306	64.5	-484.5	0	0	0	0	0	0	0	0	0	0	0	0	0	0	0	0	0	0	164897	200619	0
1651657474180	-16.104	0.976	1013.576	0.14	-0.98	0.14	-306	64.5	-483	0	0	0	0	0	0	0	0	0	0	0	0	0	0	0	0	0	0	164887	200670	0
1651657474190	-21.96	3.904	1022.36	0.14	-0.91	0.14	-306	64.5	-484.5	0	0	0	0	0	0	0	0	0	0	0	0	0	0	0	0	0	0	164916	200699	0
1651657474200	-23.912	6.344	986.736	0	-0.35	0.28	-306	64.5	-486	0	0	0	0	0	0	0	0	0	0	0	0	0	0	0	0	0	0	164897	200705	0
1651657474210	-17.08	1.464	1013.088	0.07	-1.12	0.21	-309	61.5	-490.5	0	0	0	0	0	0	0	0	0	0	0	0	0	0	0	0	0	0	164863	200682	0
1651657474220	-16.592	-0.488	1007.72	0.07	-0.77	0.28	-307.5	60	-489	0	0	0	0	0	0	0	0	0	0	0	0	0	0	0	0	0	0	164814	200607	0
1651657474230	-19.032	-0.976	1012.112	-0.07	-0.98	0.35	-306	61.5	-487.5	0	0	0	0	0	0	0	0	0	0	0	0	0	0	0	0	0	0	164758	200577	0
1651657474240	-11.712	0.976	1016.016	0.07	-0.98	0.35	-304.5	63	-492	0	0	0	0	0	0	0	0	0	0	0	0	0	0	0	0	0	0	164759	200572	0
1651657474250	-16.104	0.976	1013.088	0.07	-0.84	0.35	-303	61.5	-493.5	0	0	0	0	0	0	0	0	0	0	0	0	0	0	0	0	0	0	164744	200580	0
1651657474260	-26.352	-4.392	1016.016	0.14	-0.7	1.05	-307.5	64.5	-493.5	0	0	0	0	0	0	0	0	0	0	0	0	0	0	0	0	0	0	164727	200590	0
1651657474270	-27.328	-6.344	1015.04	-0.35	-0.84	3.99	-310.5	69	-490.5	0	0	0	0	0	0	0	0	0	0	0	0	0	0	0	0	0	0	164747	200598	0
1651657474280	-15.616	19.032	1016.504	-0.42	-0.91	2.31	-307.5	66	-487.5	0	0	0	0	0	0	0	0	0	0	0	0	0	0	0	0	0	0	164729	200592	0
1651657474290	-40.992	3.416	1016.992	0.07	-0.77	0.77	-306	64.5	-486	0	0	0	0	0	0	0	0	0	0	0	0	0	0	0	0	0	0	164725	200556	0
1651657474300	-27.816	-12.2	1007.232	0.07	-0.98	0.77	-306	67.5	-483	0	0	0	0	0	0	0	0	0	0	0	0	0	0	0	0	0	0	164702	200523	0
1651657474310	-27.328	-7.808	1018.944	-0.07	-0.91	1.75	-306	64.5	-484.5	0	0	0	0	0	0	0	0	0	0	0	0	0	0	0	0	0	0	164680	200488	0
1651657474320	-17.568	9.76	1009.672	-0.14	-0.84	1.61	-304.5	61.5	-483	0	0	0	0	0	0	0	0	0	0	0	0	0	0	0	0	0	0	164694	200472	0
1651657474330	-15.616	-5.368	1013.576	0	-0.98	0.21	-309	61.5	-480	0	0	0	0	0	0	0	0	0	0	0	0	0	0	0	0	0	0	164718	200480	0
1651657474340	-11.712	-5.856	1016.992	0	-0.98	0	-307.5	61.5	-483	0	0	0	0	0	0	0	0	0	0	0	0	0	0	0	0	0	0	164768	200507	0
1651657474350	-16.592	-10.736	1011.624	0	-0.91	0	-303	64.5	-489	0	0	0	0	0	0	0	0	0	0	0	0	0	0	0	0	0	0	164810	200552	0
1651657474360	-15.128	-13.176	1010.648	0.14	-0.91	-0.07	-301.5	67.5	-487.5	0	0	0	0	0	0	0	0	0	0	0	0	0	0	0	0	0	0	164842	200558	0
1651657474370	-19.52	-7.808	1012.6	0.07	-0.91	0.07	-306	67.5	-489	0	0	0	0	0	0	0	0	0	0	0	0	0	0	0	0	0	0	164848	200547	0
1651657474380	-21.96	-3.416	1009.672	0	-0.84	0.07	-306	70.5	-490.5	0	0	0	0	0	0	0	0	0	0	0	0	0	0	0	0	0	0	164814	200514	0
1651657474390	-25.864	-4.392	1010.16	-0.07	-0.91	-0.07	-309	67.5	-489	0	0	0	0	0	0	0	0	0	0	0	0	0	0	0	0	0	0	164782	200505	0
1651657474400	-22.448	-8.784	1013.576	-0.14	-0.91	0	-312	63	-489	0	0	0	0	0	0	0	0	0	0	0	0	0	0	0	0	0	0	164761	200492	0
1651657474410	-14.64	-0.976	1016.504	0.35	-0.91	0	-307.5	63	-490.5	0	0	0	0	0	0	0	0	0	0	0	0	0	0	0	0	0	0	164765	200501	0
1651657474420	-13.664	-11.712	1013.576	0	-0.98	0	-303	58.5	-484.5	0	0	0	0	0	0	0	0	0	0	0	0	0	0	0	0	0	0	164796	200525	0
1651657474430	-12.688	0	1016.016	-0.14	-0.98	0.14	-304.5	60	-484.5	0	0	0	0	0	0	0	0	0	0	0	0	0	0	0	0	0	0	164864	200571	0
1651657474440	-18.544	0.488	1011.624	-0.07	-0.77	0.07	-310.5	64.5	-484.5	0	0	0	0	0	0	0	0	0	0	0	0	0	0	0	0	0	0	164944	200613	0
1651657474450	-12.688	-1.952	1015.528	-0.07	-0.91	0.07	-306	64.5	-489	0	0	0	0	0	0	0	0	0	0	0	0	0	0	0	0	0	0	165041	200678	0
1651657474460	-19.52	-3.416	1016.016	0.07	-1.05	-0.07	-300	64.5	-487.5	0	0	0	0	0	0	0	0	0	0	0	0	0	0	0	0	0	0	165115	200718	0
1651657474470	-20.984	-11.224	1014.552	0	-0.98	-0.07	-306	60	-483	0	0	0	0	0	0	0	0	0	0	0	0	0	0	0	0	0	0	165091	200697	0
1651657474480	-20.496	-8.296	1013.576	0.07	-0.98	0	-307.5	58.5	-481.5	0	0	0	0	0	0	0	0	0	0	0	0	0	0	0	0	0	0	165031	200647	0
1651657474490	-20.008	-3.416	1011.136	0.07	-0.98	0.07	-307.5	63	-483	0	0	0	0	0	0	0	0	0	0	0	0	0	0	0	0	0	0	164975	200617	0
1651657474500	-24.4	-4.392	1016.016	0.07	-0.84	0.07	-306	61.5	-483	0	0	0	0	0	0	0	0	0	0	0	0	0	0	0	0	0	0	164912	200573	0
1651657474510	-21.472	-1.464	1018.944	0	-0.98	0	-309	58.5	-481.5	0	0	0	0	0	0	0	0	0	0	0	0	0	0	0	0	0	0	164848	200535	0
1651657474520	-20.008	-6.344	1011.624	0.07	-0.98	0.07	-310.5	60	-484.5	0	0	0	0	0	0	0	0	0	0	0	0	0	0	0	0	0	0	164821	200536	0
1651657474530	-23.912	-4.88	1015.04	0.14	-0.77	0.07	-307.5	58.5	-486	0	0	0	0	0	0	0	0	0	0	0	0	0	0	0	0	0	0	164856	200530	0
1651657474540	-22.448	-9.272	1014.552	-0.07	-0.98	0.07	-306	58.5	-481.5	0	0	0	0	0	0	0	0	0	0	0	0	0	0	0	0	0	0	164881	200559	0
1651657474550	-19.032	-7.32	1007.232	-0.07	-0.98	0.07	-307.5	60	-483	0	0	0	0	0	0	0	0	0	0	0	0	0	0	0	0	0	0	164944	200605	0
1651657474560	-21.472	-5.856	1015.528	0	-0.98	0	-309	60	-492	0	0	0	0	0	0	0	0	0	0	0	0	0	0	0	0	0	0	164988	200620	0
1651657474570	-22.936	-3.904	1011.136	0.07	-0.84	0	-310.5	63	-492	0	0	0	0	0	0	0	0	0	0	0	0	0	0	0	0	0	0	164995	200621	0
1651657474580	-12.688	-5.368	1011.136	0.14	-0.98	0.07	-309	58.5	-484.5	0	0	0	0	0	0	0	0	0	0	0	0	0	0	0	0	0	0	165001	200601	0
1651657474590	-20.008	-1.952	1013.576	0.14	-1.05	-0.07	-309	55.5	-483	0	0	0	0	0	0	0	0	0	0	0	0	0	0	0	0	0	0	164944	200576	0
1651657474600	-20.984	-7.808	1007.72	0.07	-0.56	0.14	-307.5	66	-489	0	0	0	0	0	0	0	0	0	0	0	0	0	0	0	0	0	0	164911	200552	0
1651657474610	-28.304	-6.344	1008.208	0.07	-0.91	0.14	-306	66	-483	0	0	0	0	0	0	0	0	0	0	0	0	0	0	0	0	0	0	164884	200540	0
1651657474620	-21.472	-7.32	1014.064	0	-1.05	0.14	-309	61.5	-480	0	0	0	0	0	0	0	0	0	0	0	0	0	0	0	0	0	0	164857	200529	0
1651657474630	-25.376	-3.416	1013.576	0	-0.77	0.21	-304.5	67.5	-484.5	0	0	0	0	0	0	0	0	0	0	0	0	0	0	0	0	0	0	164832	200536	0
1651657474640	-22.448	11.224	1007.232	-0.07	-0.91	0	-304.5	64.5	-487.5	0	0	0	0	0	0	0	0	0	0	0	0	0	0	0	0	0	0	164788	200529	0
1651657474650	-15.128	6.344	1011.136	0.07	-0.98	0	-307.5	60	-487.5	0	0	0	0	0	0	0	0	0	0	0	0	0	0	0	0	0	0	164764	200513	0
1651657474660	-17.568	1.464	1016.504	0.21	-0.91	0.07	-309	63	-484.5	0	0	0	0	0	0	0	0	0	0	0	0	0	0	0	0	0	0	164689	200477	0
1651657474670	-15.128	5.368	1015.04	0	-0.98	0.07	-309	63	-487.5	0	0	0	0	0	0	0	0	0	0	0	0	0	0	0	0	0	0	164641	200435	0
1651657474680	-14.64	5.368	1015.528	-0.14	-0.91	0.14	-304.5	58.5	-490.5	0	0	0	0	0	0	0	0	0	0	0	0	0	0	0	0	0	0	164619	200411	0
1651657474690	-18.544	5.856	1007.72	0	-0.98	0.21	-306	61.5	-489	0	0	0	0	0	0	0	0	0	0	0	0	0	0	0	0	0	0	164564	200379	0
1651657474700	-28.304	-1.952	1010.648	-0.07	-0.98	0.21	-307.5	67.5	-486	0	0	0	0	0	0	0	0	0	0	0	0	0	0	0	0	0	0	164554	200367	0
1651657474710	-28.304	-4.88	1013.088	-0.14	-0.91	0.21	-307.5	67.5	-489	0	0	0	0	0	0	0	0	0	0	0	0	0	0	0	0	0	0	164561	200364	0
1651657474720	-26.84	-7.808	1013.088	0	-0.91	0.14	-306	67.5	-490.5	0	0	0	0	0	0	0	0	0	0	0	0	0	0	0	0	0	0	164602	200400	0
1651657474730	-21.96	-9.272	1015.528	0.07	-0.98	0	-306	61.5	-484.5	0	0	0	0	0	0	0	0	0	0	0	0	0	0	0	0	0	0	164629	200438	0
1651657474740	-24.888	-18.056	1013.088	-0.07	-0.84	0	-307.5	60	-487.5	0	0	0	0	0	0	0	0	0	0	0	0	0	0	0	0	0	0	164651	200461	0
1651657474750	-30.256	-10.248	1015.04	0	-1.05	-0.07	-301.5	63	-487.5	0	0	0	0	0	0	0	0	0	0	0	0	0	0	0	0	0	0	164644	200510	0
1651657474760	-14.152	-4.88	1013.576	0	-1.05	0	-300	64.5	-486	0	0	0	0	0	0	0	0	0	0	0	0	0	0	0	0	0	0	164669	200520	0
1651657474770	-17.568	4.392	1017.968	-0.21	-1.12	-0.07	-304.5	58.5	-480	0	0	0	0	0	0	0	0	0	0	0	0	0	0	0	0	0	0	164700	200559	0
1651657474780	-29.768	-0.488	1011.136	0.21	-0.91	-0.07	-309	55.5	-483	0	0	0	0	0	0	0	0	0	0	0	0	0	0	0	0	0	0	164712	200547	0
1651657474790	-25.864	0.976	1014.064	0.14	-0.77	0	-310.5	61.5	-487.5	0	0	0	0	0	0	0	0	0	0	0	0	0	0	0	0	0	0	164722	200545	0
1651657474800	-13.176	-9.76	1012.112	0	-0.91	0	-307.5	66	-484.5	0	0	0	0	0	0	0	0	0	0	0	0	0	0	0	0	0	0	164722	200544	0
1651657474810	-12.688	-6.344	1011.624	0.07	-0.98	0.14	-306	64.5	-489	0	0	0	0	0	0	0	0	0	0	0	0	0	0	0	0	0	0	164711	200525	0
1651657474820	-24.4	-5.856	1013.088	0	-1.05	0.07	-304.5	63	-490.5	0	0	0	0	0	0	0	0	0	0	0	0	0	0	0	0	0	0	164742	200498	0
1651657474830	-17.568	-4.392	1012.6	0.07	-0.84	-0.07	-304.5	61.5	-487.5	0	0	0	0	0	0	0	0	0	0	0	0	0	0	0	0	0	0	164716	200478	0
1651657474840	-19.032	3.416	1010.648	0	-0.84	0	-309	60	-487.5	0	0	0	0	0	0	0	0	0	0	0	0	0	0	0	0	0	0	164715	200454	0
1651657474850	-22.448	-4.88	1009.672	0.07	-0.84	0	-312	55.5	-486	0	0	0	0	0	0	0	0	0	0	0	0	0	0	0	0	0	0	164703	200439	0
1651657474860	-20.008	-4.88	1011.136	0	-0.84	0	-312	60	-486	0	0	0	0	0	0	0	0	0	0	0	0	0	0	0	0	0	0	164727	200417	0
1651657474870	-17.08	2.928	1017.968	0.07	-0.98	0.07	-307.5	60	-483	0	0	0	0	0	0	0	0	0	0	0	0	0	0	0	0	0	0	164697	200393	0
1651657474880	-28.792	-5.368	1013.576	0	-0.91	-0.07	-304.5	58.5	-486	0	0	0	0	0	0	0	0	0	0	0	0	0	0	0	0	0	0	164664	200370	0
1651657474890	-17.08	0.976	1016.992	0.14	-0.77	0.07	-306	61.5	-486	0	0	0	0	0	0	0	0	0	0	0	0	0	0	0	0	0	0	164627	200354	0
1651657474900	-20.008	-2.44	1011.624	-0.07	-1.12	0.14	-309	64.5	-484.5	0	0	0	0	0	0	0	0	0	0	0	0	0	0	0	0	0	0	164599	200337	0
1651657474910	-27.328	-5.368	1009.672	-0.07	-0.91	0.07	-304.5	63	-483	0	0	0	0	0	0	0	0	0	0	0	0	0	0	0	0	0	0	164582	200346	0
1651657474920	-22.448	-8.784	1013.576	0.28	-0.91	0.07	-304.5	67.5	-489	0	0	0	0	0	0	0	0	0	0	0	0	0	0	0	0	0	0	164571	200356	0
1651657474930	-17.568	-11.712	1012.6	0.07	-0.84	0.07	-303	66	-489	0	0	0	0	0	0	0	0	0	0	0	0	0	0	0	0	0	0	164583	200388	0
1651657474940	-21.96	0.976	1015.04	0	-0.77	0.14	-304.5	67.5	-492	0	0	0	0	0	0	0	0	0	0	0	0	0	0	0	0	0	0	164603	200404	0
1651657474950	-23.424	0	1008.696	0.07	-0.91	-0.07	-309	67.5	-490.5	0	0	0	0	0	0	0	0	0	0	0	0	0	0	0	0	0	0	164642	200438	0
1651657474961	-22.448	-2.928	1011.624	0	-0.91	-0.07	-310.5	64.5	-486	0	0	0	0	0	0	0	0	0	0	0	0	0	0	0	0	0	0	164676	200441	0
1651657474971	-24.4	-9.272	1013.576	-0.07	-0.91	0	-310.5	63	-486	0	0	0	0	0	0	0	0	0	0	0	0	0	0	0	0	0	0	164673	200443	0
1651657474981	-16.592	-11.712	1013.088	0.07	-1.12	0.07	-309	63	-484.5	0	0	0	0	0	0	0	0	0	0	0	0	0	0	0	0	0	0	164674	200455	0
1651657474991	-22.448	-5.856	1018.944	0.07	-0.91	0	-307.5	64.5	-487.5	0	0	0	0	0	0	0	0	0	0	0	0	0	0	0	0	0	0	164653	200442	0
1651657475001	-19.032	-6.344	1012.6	0.07	-0.91	0	-300	63	-487.5	0	0	0	0	0	0	0	0	0	0	0	0	0	0	0	0	0	0	164652	200429	0
1651657475011	-14.152	-5.368	1011.624	-0.07	-0.91	0.07	-300	69	-481.5	0	0	0	0	0	0	0	0	0	0	0	0	0	0	0	0	0	0	164629	200404	0
1651657475021	-16.104	-2.928	1014.064	-0.07	-0.91	0.07	-303	66	-480	0	0	0	0	0	0	0	0	0	0	0	0	0	0	0	0	0	0	164604	200399	0
1651657475031	-18.544	0	1015.528	0.28	-0.98	0	-303	57	-480	0	0	0	0	0	0	0	0	0	0	0	0	0	0	0	0	0	0	164595	200380	0
1651657475041	-18.544	-3.904	1014.064	0.14	-0.98	0.07	-304.5	58.5	-480	0	0	0	0	0	0	0	0	0	0	0	0	0	0	0	0	0	0	164579	200396	0
1651657475051	-22.448	-5.856	1010.648	-0.14	-0.91	-0.07	-304.5	63	-481.5	0	0	0	0	0	0	0	0	0	0	0	0	0	0	0	0	0	0	164575	200418	0
1651657475061	-25.376	2.928	1014.552	-0.07	-0.91	0	-306	66	-483	0	0	0	0	0	0	0	0	0	0	0	0	0	0	0	0	0	0	164572	200441	0
1651657475071	-23.424	5.856	1015.04	0.07	-0.84	0	-306	67.5	-481.5	0	0	0	0	0	0	0	0	0	0	0	0	0	0	0	0	0	0	164577	200473	0
1651657475081	-24.4	-3.904	1015.04	0	-1.05	0.07	-306	61.5	-484.5	0	0	0	0	0	0	0	0	0	0	0	0	0	0	0	0	0	0	164610	200478	0
1651657475091	-7.32	-15.128	1010.16	-0.07	-0.7	0.14	-306	61.5	-490.5	0	0	0	0	0	0	0	0	0	0	0	0	0	0	0	0	0	0	164585	200450	0
1651657475101	-21.472	-0.488	1010.648	0.07	-1.12	0.14	-309	64.5	-493.5	0	0	0	0	0	0	0	0	0	0	0	0	0	0	0	0	0	0	164575	200449	0
1651657475111	-4.88	-11.712	1009.184	0.07	-1.33	0.14	-309	58.5	-489	0	0	0	0	0	0	0	0	0	0	0	0	0	0	0	0	0	0	164597	200456	0
1651657475121	-17.08	-17.08	1007.232	0	-1.19	0.07	-309	55.5	-484.5	0	0	0	0	0	0	0	0	0	0	0	0	0	0	0	0	0	0	164642	200504	0
1651657475131	-25.864	-3.416	1007.232	0.07	-0.91	0.07	-306	60	-484.5	0	0	0	0	0	0	0	0	0	0	0	0	0	0	0	0	0	0	164679	200499	0
1651657475141	-22.448	-8.784	1012.6	0.21	-0.84	0	-306	63	-486	0	0	0	0	0	0	0	0	0	0	0	0	0	0	0	0	0	0	164700	200526	0
1651657475151	-15.128	-6.832	1010.648	-0.07	-0.98	0	-312	63	-486	0	0	0	0	0	0	0	0	0	0	0	0	0	0	0	0	0	0	164733	200547	0
1651657475161	-26.84	-4.392	1018.456	0.28	-1.12	-0.07	-313.5	64.5	-489	0	0	0	0	0	0	0	0	0	0	0	0	0	0	0	0	0	0	164738	200539	0
1651657475171	-30.744	-6.832	1017.48	0.14	-0.91	0	-310.5	60	-490.5	0	0	0	0	0	0	0	0	0	0	0	0	0	0	0	0	0	0	164758	200554	0
1651657475181	-23.424	-8.784	1016.504	-0.07	-1.19	0	-306	58.5	-489	0	0	0	0	0	0	0	0	0	0	0	0	0	0	0	0	0	0	164783	200568	0
1651657475191	-16.592	-8.296	1014.552	0.14	-1.12	0.07	-300	54	-487.5	0	0	0	0	0	0	0	0	0	0	0	0	0	0	0	0	0	0	164810	200614	0
1651657475201	-13.176	-0.488	1007.72	0	-0.98	0.07	-298.5	58.5	-487.5	0	0	0	0	0	0	0	0	0	0	0	0	0	0	0	0	0	0	164864	200647	0
1651657475211	-16.592	2.44	1015.528	0	-0.98	0	-303	64.5	-489	0	0	0	0	0	0	0	0	0	0	0	0	0	0	0	0	0	0	164905	200651	0
1651657475221	-30.744	-1.464	1022.36	0	-0.98	0	-304.5	63	-486	0	0	0	0	0	0	0	0	0	0	0	0	0	0	0	0	0	0	164914	200668	0
1651657475231	-14.152	-3.904	1017.968	0.07	-1.19	0.14	-304.5	61.5	-484.5	0	0	0	0	0	0	0	0	0	0	0	0	0	0	0	0	0	0	164939	200691	0
1651657475241	-19.52	-8.784	1021.384	0	-1.33	0.07	-310.5	66	-489	0	0	0	0	0	0	0	0	0	0	0	0	0	0	0	0	0	0	164958	200692	0
1651657475251	-17.568	-14.152	1013.088	0	-1.05	0.07	-307.5	70.5	-490.5	0	0	0	0	0	0	0	0	0	0	0	0	0	0	0	0	0	0	164959	200709	0
1651657475261	-27.328	-6.344	1015.528	-0.07	-0.98	0.07	-307.5	64.5	-492	0	0	0	0	0	0	0	0	0	0	0	0	0	0	0	0	0	0	164983	200722	0
1651657475271	-26.352	-6.344	1010.648	0.14	-0.77	0.07	-304.5	57	-487.5	0	0	0	0	0	0	0	0	0	0	0	0	0	0	0	0	0	0	164972	200705	0
1651657475281	-24.888	0.488	1009.672	0.21	-0.63	0.07	-301.5	57	-487.5	0	0	0	0	0	0	0	0	0	0	0	0	0	0	0	0	0	0	164980	200732	0
1651657475291	-17.08	-1.464	1016.504	-0.07	-1.19	0	-306	57	-484.5	0	0	0	0	0	0	0	0	0	0	0	0	0	0	0	0	0	0	164959	200740	0
1651657475301	-18.544	-4.392	1010.648	0.07	-0.91	0	-306	60	-486	0	0	0	0	0	0	0	0	0	0	0	0	0	0	0	0	0	0	164943	200734	0
1651657475311	-23.912	0	1009.672	0.07	-0.91	0.07	-304.5	64.5	-489	0	0	0	0	0	0	0	0	0	0	0	0	0	0	0	0	0	0	164922	200732	0
1651657475321	-16.104	-3.416	1013.576	0.07	-1.12	0.07	-301.5	63	-484.5	0	0	0	0	0	0	0	0	0	0	0	0	0	0	0	0	0	0	164925	200739	0
1651657475331	-33.672	0.976	1011.136	0	-0.7	-0.07	-306	61.5	-484.5	0	0	0	0	0	0	0	0	0	0	0	0	0	0	0	0	0	0	164890	200735	0
1651657475341	-14.64	0.488	1012.112	0.14	-0.98	0.07	-312	61.5	-483	0	0	0	0	0	0	0	0	0	0	0	0	0	0	0	0	0	0	164869	200714	0
1651657475351	-17.08	-0.488	1010.648	0.14	-0.84	0.07	-310.5	66	-481.5	0	0	0	0	0	0	0	0	0	0	0	0	0	0	0	0	0	0	164845	200728	0
1651657475361	-18.544	-6.344	1014.552	0	-0.84	0.07	-304.5	67.5	-483	0	0	0	0	0	0	0	0	0	0	0	0	0	0	0	0	0	0	164888	200738	0
1651657475371	-16.104	-1.464	1013.576	0.07	-0.98	0.14	-300	64.5	-484.5	0	0	0	0	0	0	0	0	0	0	0	0	0	0	0	0	0	0	164913	200766	0
1651657475381	-20.984	-5.368	1011.136	0.14	-0.98	0.07	-306	64.5	-487.5	0	0	0	0	0	0	0	0	0	0	0	0	0	0	0	0	0	0	164929	200792	0
1651657475391	-19.032	1.464	1014.552	0.14	-0.77	0.14	-310.5	66	-484.5	0	0	0	0	0	0	0	0	0	0	0	0	0	0	0	0	0	0	164949	200814	0
1651657475401	-20.984	9.76	1017.48	-0.14	-1.05	0.14	-307.5	67.5	-489	0	0	0	0	0	0	0	0	0	0	0	0	0	0	0	0	0	0	164976	200839	0
1651657475411	-22.936	1.464	1014.064	-0.21	-0.77	0.14	-309	64.5	-493.5	0	0	0	0	0	0	0	0	0	0	0	0	0	0	0	0	0	0	164997	200866	0
1651657475421	-16.104	4.88	1014.064	0.21	-0.84	0.07	-309	63	-490.5	0	0	0	0	0	0	0	0	0	0	0	0	0	0	0	0	0	0	164978	200855	0
1651657475431	-16.592	0.976	1013.088	0.07	-0.98	0.07	-300	61.5	-483	0	0	0	0	0	0	0	0	0	0	0	0	0	0	0	0	0	0	164919	200834	0
1651657475441	-24.4	8.296	1009.672	0	-0.84	0.21	-300	64.5	-481.5	0	0	0	0	0	0	0	0	0	0	0	0	0	0	0	0	0	0	164867	200831	0
1651657475451	-24.888	-2.44	1013.088	0.07	-0.7	0.14	-303	64.5	-483	0	0	0	0	0	0	0	0	0	0	0	0	0	0	0	0	0	0	164826	200816	0
1651657475461	-17.568	-3.416	1015.528	0	-0.84	0.21	-309	64.5	-489	0	0	0	0	0	0	0	0	0	0	0	0	0	0	0	0	0	0	164827	200825	0
1651657475471	-22.448	0.976	1013.576	0.07	-1.05	0.07	-306	66	-489	0	0	0	0	0	0	0	0	0	0	0	0	0	0	0	0	0	0	164824	200851	0
1651657475481	-22.448	-13.176	1008.696	0	-0.91	0.07	-309	66	-487.5	0	0	0	0	0	0	0	0	0	0	0	0	0	0	0	0	0	0	164819	200855	0
1651657475491	-22.448	-5.368	1010.648	0	-0.98	0.14	-309	60	-484.5	0	0	0	0	0	0	0	0	0	0	0	0	0	0	0	0	0	0	164851	200891	0
1651657475501	-17.568	-8.784	1016.504	0.07	-0.91	0.14	-307.5	63	-484.5	0	0	0	0	0	0	0	0	0	0	0	0	0	0	0	0	0	0	164858	200912	0
1651657475511	-24.888	-3.416	1016.992	0.07	-0.77	0.07	-307.5	67.5	-481.5	0	0	0	0	0	0	0	0	0	0	0	0	0	0	0	0	0	0	164891	200940	0
1651657475521	-13.176	2.928	1013.576	0.07	-0.7	0.07	-310.5	66	-483	0	0	0	0	0	0	0	0	0	0	0	0	0	0	0	0	0	0	164933	200953	0
1651657475531	-23.912	-3.416	1014.552	-0.21	-0.98	0.07	-307.5	63	-484.5	0	0	0	0	0	0	0	0	0	0	0	0	0	0	0	0	0	0	165000	201016	0
1651657475541	-18.544	-0.488	1018.944	-0.14	-0.84	0	-307.5	64.5	-487.5	0	0	0	0	0	0	0	0	0	0	0	0	0	0	0	0	0	0	165065	201042	0
1651657475551	-23.912	-5.856	1014.552	0.14	-0.91	0.14	-309	63	-489	0	0	0	0	0	0	0	0	0	0	0	0	0	0	0	0	0	0	165079	201063	0
1651657475561	-19.032	0	1012.112	0	-0.84	0.14	-303	64.5	-489	0	0	0	0	0	0	0	0	0	0	0	0	0	0	0	0	0	0	165100	201085	0
1651657475571	-26.352	-4.392	1010.16	0.07	-0.91	0.07	-304.5	60	-483	0	0	0	0	0	0	0	0	0	0	0	0	0	0	0	0	0	0	165108	201080	0
1651657475581	-21.96	-1.952	1007.72	-0.07	-0.91	0.07	-307.5	55.5	-480	0	0	0	0	0	0	0	0	0	0	0	0	0	0	0	0	0	0	165105	201067	0
1651657475591	-22.448	-3.416	1012.112	0.14	-0.91	0.07	-304.5	60	-487.5	0	0	0	0	0	0	0	0	0	0	0	0	0	0	0	0	0	0	165081	201048	0
1651657475601	-21.96	-9.76	1010.648	0	-0.84	0.07	-307.5	60	-492	0	0	0	0	0	0	0	0	0	0	0	0	0	0	0	0	0	0	165102	201043	0
1651657475611	-23.424	-8.296	1010.648	0.14	-0.91	0.07	-309	61.5	-492	0	0	0	0	0	0	0	0	0	0	0	0	0	0	0	0	0	0	165080	201038	0
1651657475621	-16.592	-11.712	1011.624	-0.07	-0.91	0.07	-307.5	60	-489	0	0	0	0	0	0	0	0	0	0	0	0	0	0	0	0	0	0	165049	201008	0
1651657475631	-21.472	-7.32	1013.088	-0.07	-0.91	0	-304.5	57	-487.5	0	0	0	0	0	0	0	0	0	0	0	0	0	0	0	0	0	0	165033	200970	0
1651657475641	-25.864	1.952	1013.088	-0.07	-0.98	0	-306	66	-489	0	0	0	0	0	0	0	0	0	0	0	0	0	0	0	0	0	0	165042	200961	0
1651657475651	-15.616	-2.44	1015.04	0.28	-1.05	0.07	-310.5	69	-487.5	0	0	0	0	0	0	0	0	0	0	0	0	0	0	0	0	0	0	165061	200961	0
1651657475661	-8.784	-5.368	1012.6	0.07	-0.77	0	-307.5	66	-486	0	0	0	0	0	0	0	0	0	0	0	0	0	0	0	0	0	0	165121	200970	0
1651657475671	-19.52	2.928	1015.04	-0.21	-0.91	0.07	-306	63	-483	0	0	0	0	0	0	0	0	0	0	0	0	0	0	0	0	0	0	165184	200997	0
1651657475681	-16.592	-4.88	1015.04	0.14	-0.98	0	-307.5	66	-484.5	0	0	0	0	0	0	0	0	0	0	0	0	0	0	0	0	0	0	165240	200976	0
1651657475691	-26.352	-4.392	1013.088	-0.07	-0.84	0	-306	66	-486	0	0	0	0	0	0	0	0	0	0	0	0	0	0	0	0	0	0	165210	200912	0
1651657475701	-20.008	-6.832	1013.576	0	-0.98	0.07	-307.5	61.5	-484.5	0	0	0	0	0	0	0	0	0	0	0	0	0	0	0	0	0	0	165159	200848	0
1651657475711	-20.496	-5.856	1009.672	0	-0.84	0.07	-306	60	-481.5	0	0	0	0	0	0	0	0	0	0	0	0	0	0	0	0	0	0	165144	200803	0
1651657475721	-25.864	-5.368	1014.064	0.07	-0.91	0.14	-307.5	61.5	-483	0	0	0	0	0	0	0	0	0	0	0	0	0	0	0	0	0	0	165142	200804	0
1651657475731	-21.96	-4.392	1016.504	0.07	-0.84	0.14	-307.5	66	-486	0	0	0	0	0	0	0	0	0	0	0	0	0	0	0	0	0	0	165109	200785	0
1651657475741	-24.4	-6.344	1011.624	0.07	-0.84	0.14	-306	64.5	-487.5	0	0	0	0	0	0	0	0	0	0	0	0	0	0	0	0	0	0	165064	200762	0
1651657475751	-24.4	1.952	1012.6	0	-0.91	0	-309	64.5	-487.5	0	0	0	0	0	0	0	0	0	0	0	0	0	0	0	0	0	0	165067	200772	0
1651657475761	-22.448	-7.32	1018.456	-0.07	-0.98	0	-309	63	-486	0	0	0	0	0	0	0	0	0	0	0	0	0	0	0	0	0	0	165102	200815	0
1651657475771	-17.568	-6.832	1015.04	0.14	-1.05	-0.07	-306	63	-489	0	0	0	0	0	0	0	0	0	0	0	0	0	0	0	0	0	0	165100	200827	0
1651657475781	-23.424	-2.928	1009.184	0.14	-0.7	-0.07	-303	64.5	-490.5	0	0	0	0	0	0	0	0	0	0	0	0	0	0	0	0	0	0	165066	200819	0
1651657475791	-22.936	0	1013.576	-0.14	-1.05	0.07	-306	66	-481.5	0	0	0	0	0	0	0	0	0	0	0	0	0	0	0	0	0	0	165030	200791	0
1651657475802	-20.984	1.952	1013.576	-0.14	-0.84	0.14	-307.5	66	-477	0	0	0	0	0	0	0	0	0	0	0	0	0	0	0	0	0	0	164969	200762	0
1651657475812	-16.592	-6.344	1017.968	0.07	-0.91	0.14	-309	64.5	-486	0	0	0	0	0	0	0	0	0	0	0	0	0	0	0	0	0	0	164953	200730	0
1651657475822	-17.568	-8.784	1011.624	0	-0.84	0.07	-306	61.5	-486	0	0	0	0	0	0	0	0	0	0	0	0	0	0	0	0	0	0	164923	200696	0
1651657475832	-17.568	-11.712	1018.944	0	-0.98	0.07	-304.5	60	-486	0	0	0	0	0	0	0	0	0	0	0	0	0	0	0	0	0	0	164897	200663	0
1651657475842	-16.104	-6.344	1009.184	0.07	-1.05	0	-301.5	60	-487.5	0	0	0	0	0	0	0	0	0	0	0	0	0	0	0	0	0	0	164870	200667	0
1651657475852	-17.568	-0.976	1014.064	0	-0.84	0.07	-301.5	61.5	-493.5	0	0	0	0	0	0	0	0	0	0	0	0	0	0	0	0	0	0	164845	200647	0
1651657475862	-25.376	0.976	1014.064	0.07	-1.05	0.14	-306	60	-492	0	0	0	0	0	0	0	0	0	0	0	0	0	0	0	0	0	0	164787	200580	0
1651657475872	-23.424	-0.488	1006.256	0	-0.7	0.07	-307.5	57	-486	0	0	0	0	0	0	0	0	0	0	0	0	0	0	0	0	0	0	164714	200543	0
1651657475882	-18.056	-9.76	1012.112	0.07	-1.12	0	-310.5	60	-484.5	0	0	0	0	0	0	0	0	0	0	0	0	0	0	0	0	0	0	164632	200488	0
1651657475892	-25.376	-4.88	1005.768	0.07	-0.77	0	-312	64.5	-481.5	0	0	0	0	0	0	0	0	0	0	0	0	0	0	0	0	0	0	164552	200438	0
1651657475902	-25.864	-0.488	1016.992	0.21	-0.84	0.07	-304.5	63	-484.5	0	0	0	0	0	0	0	0	0	0	0	0	0	0	0	0	0	0	164501	200420	0
1651657475912	-22.936	-7.808	1011.136	0	-0.91	0.14	-301.5	60	-487.5	0	0	0	0	0	0	0	0	0	0	0	0	0	0	0	0	0	0	164438	200363	0
1651657475922	-28.792	-7.808	1014.064	-0.21	-0.84	0.07	-309	58.5	-484.5	0	0	0	0	0	0	0	0	0	0	0	0	0	0	0	0	0	0	164406	200360	0
1651657475932	-19.032	-3.416	1015.04	0.07	-0.77	0.07	-307.5	60	-487.5	0	0	0	0	0	0	0	0	0	0	0	0	0	0	0	0	0	0	164348	200299	0
1651657475942	-20.008	-4.88	1013.088	0.14	-1.05	0	-306	63	-486	0	0	0	0	0	0	0	0	0	0	0	0	0	0	0	0	0	0	164299	200280	0
1651657475952	-24.4	-1.952	1011.136	0	-0.84	0.14	-306	63	-484.5	0	0	0	0	0	0	0	0	0	0	0	0	0	0	0	0	0	0	164262	200264	0
1651657475962	-18.056	0.488	1019.92	0.07	-1.12	0.14	-307.5	63	-483	0	0	0	0	0	0	0	0	0	0	0	0	0	0	0	0	0	0	164255	200257	0
1651657475972	-18.544	0	1008.208	0.07	-0.98	0	-310.5	66	-483	0	0	0	0	0	0	0	0	0	0	0	0	0	0	0	0	0	0	164267	200291	0
1651657475982	-13.176	-1.952	1018.456	0	-0.98	0.14	-307.5	63	-484.5	0	0	0	0	0	0	0	0	0	0	0	0	0	0	0	0	0	0	164320	200363	0
1651657475992	-20.008	0.976	1015.528	-0.07	-0.91	0.14	-307.5	64.5	-478.5	0	0	0	0	0	0	0	0	0	0	0	0	0	0	0	0	0	0	164412	200414	0
1651657476002	-22.448	-3.904	1016.504	-0.07	-0.98	0.14	-303	58.5	-477	0	0	0	0	0	0	0	0	0	0	0	0	0	0	0	0	0	0	164511	200508	0
1651657476012	-21.96	-8.784	1009.672	0.07	-0.91	0.07	-297	58.5	-484.5	0	0	0	0	0	0	0	0	0	0	0	0	0	0	0	0	0	0	164521	200495	0
1651657476022	-20.984	-4.88	1013.576	0	-0.84	0.28	-298.5	63	-487.5	0	0	0	0	0	0	0	0	0	0	0	0	0	0	0	0	0	0	164527	200461	0
1651657476032	-14.64	-1.952	1014.552	-0.28	-0.98	0.07	-304.5	60	-486	0	0	0	0	0	0	0	0	0	0	0	0	0	0	0	0	0	0	164513	200439	0
1651657476042	-20.008	-10.736	1010.16	0.14	-0.91	0.07	-307.5	58.5	-486	0	0	0	0	0	0	0	0	0	0	0	0	0	0	0	0	0	0	164526	200410	0
1651657476052	-17.08	2.44	1017.48	0.07	-0.84	0	-306	57	-487.5	0	0	0	0	0	0	0	0	0	0	0	0	0	0	0	0	0	0	164527	200425	0
1651657476062	-22.936	-7.32	1013.576	0	-0.7	0.07	-306	55.5	-489	0	0	0	0	0	0	0	0	0	0	0	0	0	0	0	0	0	0	164555	200437	0
1651657476072	-17.568	0	1013.576	0	-0.91	0.07	-307.5	58.5	-484.5	0	0	0	0	0	0	0	0	0	0	0	0	0	0	0	0	0	0	164602	200457	0
1651657476082	-18.544	2.928	1014.552	0	-0.91	0.07	-307.5	63	-486	0	0	0	0	0	0	0	0	0	0	0	0	0	0	0	0	0	0	164635	200493	0
1651657476092	-29.768	-2.928	1012.6	0	-0.98	0.07	-307.5	61.5	-487.5	0	0	0	0	0	0	0	0	0	0	0	0	0	0	0	0	0	0	164689	200532	0
1651657476102	-22.936	-0.488	1010.648	0.07	-0.84	0.14	-306	63	-489	0	0	0	0	0	0	0	0	0	0	0	0	0	0	0	0	0	0	164719	200561	0
1651657476112	-27.328	-7.808	1018.944	0.14	-0.91	0.07	-304.5	63	-486	0	0	0	0	0	0	0	0	0	0	0	0	0	0	0	0	0	0	164731	200567	0
1651657476122	-21.96	-7.808	1016.992	0	-0.91	0	-304.5	63	-483	0	0	0	0	0	0	0	0	0	0	0	0	0	0	0	0	0	0	164743	200568	0
1651657476132	-20.984	-11.224	1014.552	0.07	-1.05	-0.07	-304.5	63	-484.5	0	0	0	0	0	0	0	0	0	0	0	0	0	0	0	0	0	0	164721	200582	0
1651657476142	-21.472	-10.248	1010.16	-0.07	-0.98	0	-304.5	64.5	-487.5	0	0	0	0	0	0	0	0	0	0	0	0	0	0	0	0	0	0	164710	200544	0
1651657476152	-22.448	-4.88	1019.432	0.21	-1.05	-0.07	-301.5	64.5	-484.5	0	0	0	0	0	0	0	0	0	0	0	0	0	0	0	0	0	0	164673	200496	0
1651657476162	-30.744	-2.44	1007.232	0.21	-0.63	-0.07	-303	63	-487.5	0	0	0	0	0	0	0	0	0	0	0	0	0	0	0	0	0	0	164650	200462	0
1651657476172	-21.472	-2.928	1009.672	0	-1.05	-0.14	-301.5	66	-492	0	0	0	0	0	0	0	0	0	0	0	0	0	0	0	0	0	0	164615	200444	0
1651657476182	-21.96	-5.368	1011.624	0.07	-0.98	-0.07	-307.5	66	-484.5	0	0	0	0	0	0	0	0	0	0	0	0	0	0	0	0	0	0	164600	200439	0
1651657476192	-19.52	2.44	1016.016	0.07	-0.91	-0.14	-312	61.5	-484.5	0	0	0	0	0	0	0	0	0	0	0	0	0	0	0	0	0	0	164605	200450	0
1651657476202	-26.352	4.88	1009.184	0.07	-0.84	0	-309	67.5	-486	0	0	0	0	0	0	0	0	0	0	0	0	0	0	0	0	0	0	164593	200466	0
1651657476212	-21.96	4.392	1012.112	0	-0.91	0.07	-309	66	-487.5	0	0	0	0	0	0	0	0	0	0	0	0	0	0	0	0	0	0	164563	200445	0
1651657476222	-19.032	-3.904	1019.92	0.07	-0.91	0	-310.5	63	-486	0	0	0	0	0	0	0	0	0	0	0	0	0	0	0	0	0	0	164541	200444	0
1651657476232	-15.128	0.488	1011.136	0.07	-0.84	0.07	-304.5	58.5	-481.5	0	0	0	0	0	0	0	0	0	0	0	0	0	0	0	0	0	0	164516	200415	0
1651657476242	-20.984	5.856	1013.576	0.07	-0.98	0.14	-306	60	-489	0	0	0	0	0	0	0	0	0	0	0	0	0	0	0	0	0	0	164492	200403	0
1651657476252	-14.152	8.296	1014.552	0.07	-0.98	0.14	-309	64.5	-486	0	0	0	0	0	0	0	0	0	0	0	0	0	0	0	0	0	0	164471	200391	0
1651657476262	-15.128	-7.32	1016.016	-0.07	-1.12	0.21	-301.5	63	-484.5	0	0	0	0	0	0	0	0	0	0	0	0	0	0	0	0	0	0	164475	200395	0
1651657476272	-15.128	-5.368	1012.6	-0.07	-0.84	0.21	-301.5	64.5	-487.5	0	0	0	0	0	0	0	0	0	0	0	0	0	0	0	0	0	0	164488	200409	0
1651657476282	-20.008	-7.32	1015.528	0.14	-0.91	0.07	-304.5	63	-484.5	0	0	0	0	0	0	0	0	0	0	0	0	0	0	0	0	0	0	164534	200444	0
1651657476292	-22.448	-7.32	1008.696	0	-0.91	0	-304.5	60	-481.5	0	0	0	0	0	0	0	0	0	0	0	0	0	0	0	0	0	0	164561	200487	0
1651657476302	0	15.616	1032.12	0	-1.05	0.14	-307.5	60	-487.5	0	0	0	0	0	0	0	0	0	0	0	0	0	0	0	0	0	0	164573	200505	0
1651657476312	-19.032	-20.008	1043.344	-0.07	-0.84	0	-310.5	61.5	-487.5	0	0	0	0	0	0	0	0	0	0	0	0	0	0	0	0	0	0	164593	200515	0
1651657476322	-25.864	-9.76	995.52	0.07	-0.42	0	-306	61.5	-486	0	0	0	0	0	0	0	0	0	0	0	0	0	0	0	0	0	0	164629	200562	0
1651657476332	-9.272	-4.392	1034.072	0.07	-0.91	0	-300	63	-487.5	0	0	0	0	0	0	0	0	0	0	0	0	0	0	0	0	0	0	164709	200652	0
1651657476342	-27.328	4.88	1006.744	0.07	-1.12	0.07	-301.5	60	-487.5	0	0	0	0	0	0	0	0	0	0	0	0	0	0	0	0	0	0	164774	200677	0
1651657476352	-20.008	6.832	1026.752	0.07	-0.98	0.07	-304.5	57	-484.5	0	0	0	0	0	0	0	0	0	0	0	0	0	0	0	0	0	0	164814	200704	0
1651657476362	-21.96	0	1004.304	0.07	-0.91	0.07	-301.5	61.5	-481.5	0	0	0	0	0	0	0	0	0	0	0	0	0	0	0	0	0	0	164847	200740	0
1651657476372	-13.664	4.392	1032.12	0.07	-1.19	0.07	-310.5	66	-484.5	0	0	0	0	0	0	0	0	0	0	0	0	0	0	0	0	0	0	164862	200749	0
1651657476382	-22.936	4.392	1020.896	-0.07	-0.84	0	-312	63	-486	0	0	0	0	0	0	0	0	0	0	0	0	0	0	0	0	0	0	164891	200789	0
1651657476392	-22.448	-11.712	1005.768	-0.07	-0.98	0.07	-306	57	-492	0	0	0	0	0	0	0	0	0	0	0	0	0	0	0	0	0	0	164933	200812	0
1651657476402	-24.4	-1.464	1011.624	0.14	-0.77	0.07	-309	58.5	-487.5	0	0	0	0	0	0	0	0	0	0	0	0	0	0	0	0	0	0	164959	200818	0
1651657476412	-18.056	-0.488	1013.576	0.14	-0.98	0	-310.5	58.5	-483	0	0	0	0	0	0	0	0	0	0	0	0	0	0	0	0	0	0	164948	200816	0
1651657476422	-11.712	-8.784	1010.16	-0.07	-0.91	0.07	-307.5	58.5	-486	0	0	0	0	0	0	0	0	0	0	0	0	0	0	0	0	0	0	164948	200818	0
1651657476432	-19.032	2.44	1013.576	-0.07	-0.98	0	-309	60	-481.5	0	0	0	0	0	0	0	0	0	0	0	0	0	0	0	0	0	0	164909	200799	0
1651657476442	-23.912	-1.464	1012.6	0.07	-1.05	-0.07	-310.5	61.5	-486	0	0	0	0	0	0	0	0	0	0	0	0	0	0	0	0	0	0	164852	200777	0
1651657476452	-32.208	-3.416	1011.136	0.07	-0.84	0.07	-312	64.5	-490.5	0	0	0	0	0	0	0	0	0	0	0	0	0	0	0	0	0	0	164801	200744	0
1651657476462	-20.496	-2.44	1016.016	0	-1.05	0.07	-312	64.5	-487.5	0	0	0	0	0	0	0	0	0	0	0	0	0	0	0	0	0	0	164749	200710	0
1651657476472	-24.888	-12.2	1013.088	0.07	-0.91	0.07	-301.5	61.5	-486	0	0	0	0	0	0	0	0	0	0	0	0	0	0	0	0	0	0	164748	200673	0
1651657476482	-26.84	-3.416	1005.28	0	-0.84	0	-298.5	63	-484.5	0	0	0	0	0	0	0	0	0	0	0	0	0	0	0	0	0	0	164733	200675	0
1651657476492	-19.52	-1.464	1016.992	0.07	-0.91	0.07	-301.5	67.5	-484.5	0	0	0	0	0	0	0	0	0	0	0	0	0	0	0	0	0	0	164733	200627	0
1651657476502	-14.152	-9.272	1013.576	0	-0.98	0	-303	63	-489	0	0	0	0	0	0	0	0	0	0	0	0	0	0	0	0	0	0	164708	200599	0
1651657476512	-11.224	-9.272	1003.816	0.07	-0.77	0.07	-303	61.5	-489	0	0	0	0	0	0	0	0	0	0	0	0	0	0	0	0	0	0	164699	200571	0
1651657476522	-20.496	-1.464	1013.088	0.14	-0.91	0	-301.5	63	-486	0	0	0	0	0	0	0	0	0	0	0	0	0	0	0	0	0	0	164670	200535	0
1651657476532	-17.568	-7.32	1013.576	-0.14	-1.05	0.14	-304.5	64.5	-486	0	0	0	0	0	0	0	0	0	0	0	0	0	0	0	0	0	0	164636	200502	0
1651657476542	-17.08	-5.856	1019.432	0.07	-0.98	-0.07	-309	64.5	-489	0	0	0	0	0	0	0	0	0	0	0	0	0	0	0	0	0	0	164605	200472	0
1651657476552	-24.4	-4.88	1016.016	0.21	-0.77	0	-307.5	64.5	-493.5	0	0	0	0	0	0	0	0	0	0	0	0	0	0	0	0	0	0	164610	200488	0
1651657476562	-22.448	-2.928	1007.72	-0.07	-0.84	-0.07	-307.5	69	-492	0	0	0	0	0	0	0	0	0	0	0	0	0	0	0	0	0	0	164612	200490	0
1651657476572	-19.52	-2.928	1007.72	0	-0.91	0	-310.5	70.5	-484.5	0	0	0	0	0	0	0	0	0	0	0	0	0	0	0	0	0	0	164655	200534	0
1651657476582	-21.96	-1.952	1008.696	0.07	-0.91	0	-301.5	67.5	-480	0	0	0	0	0	0	0	0	0	0	0	0	0	0	0	0	0	0	164692	200573	0
1651657476592	-16.104	1.952	1014.552	0.07	-0.98	0	-301.5	63	-484.5	0	0	0	0	0	0	0	0	0	0	0	0	0	0	0	0	0	0	164751	200623	0
1651657476602	-20.008	-4.392	1013.576	-0.07	-0.77	0.14	-303	57	-487.5	0	0	0	0	0	0	0	0	0	0	0	0	0	0	0	0	0	0	164767	200672	0
1651657476612	-12.2	-0.488	1016.016	0	-0.98	0.07	-306	57	-486	0	0	0	0	0	0	0	0	0	0	0	0	0	0	0	0	0	0	164772	200697	0
1651657476622	-15.128	-0.488	1010.16	-0.07	-0.7	0.07	-306	60	-486	0	0	0	0	0	0	0	0	0	0	0	0	0	0	0	0	0	0	164786	200723	0
1651657476632	-20.496	-8.784	1013.088	0.07	-0.84	0	-298.5	60	-483	0	0	0	0	0	0	0	0	0	0	0	0	0	0	0	0	0	0	164813	200756	0
1651657476643	-23.912	-13.664	1010.648	0	-0.91	0.14	-304.5	58.5	-486	0	0	0	0	0	0	0	0	0	0	0	0	0	0	0	0	0	0	164807	200794	0
1651657476653	-14.64	-13.176	1013.088	-0.21	-0.91	0.07	-313.5	60	-487.5	0	0	0	0	0	0	0	0	0	0	0	0	0	0	0	0	0	0	164793	200798	0
1651657476663	-20.496	-0.976	1011.624	0	-0.84	0	-309	60	-484.5	0	0	0	0	0	0	0	0	0	0	0	0	0	0	0	0	0	0	164796	200789	0
1651657476673	-18.544	-1.952	1015.528	0.07	-0.84	0	-303	63	-483	0	0	0	0	0	0	0	0	0	0	0	0	0	0	0	0	0	0	164808	200808	0
1651657476683	-23.424	-5.368	1012.6	0	-0.91	0.07	-303	63	-484.5	0	0	0	0	0	0	0	0	0	0	0	0	0	0	0	0	0	0	164806	200811	0
1651657476693	-18.056	-8.296	1016.992	0.07	-0.98	-0.07	-303	63	-489	0	0	0	0	0	0	0	0	0	0	0	0	0	0	0	0	0	0	164821	200826	0
1651657476703	-11.224	0.488	1011.136	-0.07	-0.91	0	-303	64.5	-490.5	0	0	0	0	0	0	0	0	0	0	0	0	0	0	0	0	0	0	164840	200841	0
1651657476713	-17.08	-1.464	1008.208	0	-0.98	0.07	-303	63	-486	0	0	0	0	0	0	0	0	0	0	0	0	0	0	0	0	0	0	164809	200807	0
1651657476723	-20.008	-8.296	1013.088	-0.07	-0.98	0.14	-300	61.5	-484.5	0	0	0	0	0	0	0	0	0	0	0	0	0	0	0	0	0	0	164758	200791	0
1651657476733	-20.984	-10.248	1013.088	-0.07	-0.84	0.14	-300	67.5	-486	0	0	0	0	0	0	0	0	0	0	0	0	0	0	0	0	0	0	164740	200797	0
1651657476743	-21.96	-11.224	1016.992	0.07	-0.77	0.07	-303	70.5	-486	0	0	0	0	0	0	0	0	0	0	0	0	0	0	0	0	0	0	164783	200860	0
1651657476753	-17.568	-7.32	1014.064	0.07	-0.98	0.07	-301.5	64.5	-484.5	0	0	0	0	0	0	0	0	0	0	0	0	0	0	0	0	0	0	164804	200935	0
1651657476763	-24.4	3.416	1010.648	-0.07	-0.84	0.07	-304.5	60	-487.5	0	0	0	0	0	0	0	0	0	0	0	0	0	0	0	0	0	0	164871	201026	0
1651657476773	-23.912	0.488	1012.6	-0.07	-1.12	0.07	-307.5	63	-490.5	0	0	0	0	0	0	0	0	0	0	0	0	0	0	0	0	0	0	164941	201092	0
1651657476783	-29.28	-9.76	1017.968	-0.07	-0.98	0	-309	64.5	-487.5	0	0	0	0	0	0	0	0	0	0	0	0	0	0	0	0	0	0	165018	201135	0
1651657476793	-19.52	0.488	1010.648	0.21	-0.77	0	-310.5	64.5	-484.5	0	0	0	0	0	0	0	0	0	0	0	0	0	0	0	0	0	0	165046	201140	0
1651657476803	-26.84	0	1009.672	-0.07	-1.12	0.14	-307.5	64.5	-483	0	0	0	0	0	0	0	0	0	0	0	0	0	0	0	0	0	0	165037	201091	0
1651657476813	-18.544	0.976	1017.48	0	-0.98	0.07	-303	61.5	-486	0	0	0	0	0	0	0	0	0	0	0	0	0	0	0	0	0	0	164994	200994	0
1651657476823	-17.08	-1.952	1016.504	0	-0.91	0.07	-300	60	-489	0	0	0	0	0	0	0	0	0	0	0	0	0	0	0	0	0	0	164919	200929	0
1651657476833	-20.008	-0.976	1013.576	0	-0.77	0	-298.5	60	-487.5	0	0	0	0	0	0	0	0	0	0	0	0	0	0	0	0	0	0	164862	200834	0
1651657476843	-20.984	-3.416	1008.696	0.07	-0.84	-0.07	-301.5	64.5	-486	0	0	0	0	0	0	0	0	0	0	0	0	0	0	0	0	0	0	164800	200807	0
1651657476853	-18.544	-9.76	1018.456	0	-0.91	-0.07	-303	63	-486	0	0	0	0	0	0	0	0	0	0	0	0	0	0	0	0	0	0	164793	200818	0
1651657476863	-15.616	-4.392	1010.16	0	-0.84	0	-298.5	58.5	-484.5	0	0	0	0	0	0	0	0	0	0	0	0	0	0	0	0	0	0	164799	200802	0
1651657476873	-24.4	-2.928	1010.648	0.07	-0.91	0	-295.5	60	-484.5	0	0	0	0	0	0	0	0	0	0	0	0	0	0	0	0	0	0	164819	200843	0
1651657476883	-19.52	-0.488	1013.576	0	-0.84	0	-298.5	66	-483	0	0	0	0	0	0	0	0	0	0	0	0	0	0	0	0	0	0	164875	200881	0
1651657476893	-18.056	4.392	1009.184	-0.14	-0.98	0	-306	66	-484.5	0	0	0	0	0	0	0	0	0	0	0	0	0	0	0	0	0	0	164903	200931	0
1651657476903	-18.544	-1.464	1014.552	0	-0.84	0	-307.5	61.5	-487.5	0	0	0	0	0	0	0	0	0	0	0	0	0	0	0	0	0	0	164955	200990	0
1651657476913	-22.448	-4.392	1016.992	0.21	-0.77	-0.07	-307.5	60	-489	0	0	0	0	0	0	0	0	0	0	0	0	0	0	0	0	0	0	164958	201010	0
1651657476923	-20.008	-1.464	1016.504	-0.14	-1.12	0	-301.5	60	-489	0	0	0	0	0	0	0	0	0	0	0	0	0	0	0	0	0	0	164940	200964	0
1651657476933	-21.96	-6.344	1005.768	-0.07	-0.98	0	-303	55.5	-486	0	0	0	0	0	0	0	0	0	0	0	0	0	0	0	0	0	0	164913	200937	0
1651657476943	-14.64	-1.952	1012.6	0.14	-0.91	0.07	-304.5	58.5	-487.5	0	0	0	0	0	0	0	0	0	0	0	0	0	0	0	0	0	0	164903	200912	0
1651657476953	-20.008	1.464	1007.72	0	-0.63	-0.07	-301.5	64.5	-486	0	0	0	0	0	0	0	0	0	0	0	0	0	0	0	0	0	0	164864	200904	0
1651657476963	-25.864	-1.952	1023.336	-0.14	-0.98	-0.14	-307.5	61.5	-481.5	0	0	0	0	0	0	0	0	0	0	0	0	0	0	0	0	0	0	164837	200896	0
1651657476973	-20.984	-5.856	1017.48	-0.14	-0.7	0	-309	61.5	-483	0	0	0	0	0	0	0	0	0	0	0	0	0	0	0	0	0	0	164834	200923	0
1651657476983	-22.448	-8.296	1010.648	0.07	-1.05	0	-306	63	-487.5	0	0	0	0	0	0	0	0	0	0	0	0	0	0	0	0	0	0	164860	200963	0
1651657476993	-23.912	-1.952	1004.792	0	-0.84	0.07	-307.5	64.5	-490.5	0	0	0	0	0	0	0	0	0	0	0	0	0	0	0	0	0	0	164882	201011	0
1651657477003	-26.352	-2.44	1017.48	0.14	-1.12	0.07	-301.5	66	-489	0	0	0	0	0	0	0	0	0	0	0	0	0	0	0	0	0	0	164906	201051	0
1651657477013	-17.568	4.88	1002.84	0.07	-0.84	0.07	-300	64.5	-486	0	0	0	0	0	0	0	0	0	0	0	0	0	0	0	0	0	0	164942	201084	0
1651657477023	-18.056	-5.856	1011.136	-0.07	-0.91	0.07	-307.5	58.5	-486	0	0	0	0	0	0	0	0	0	0	0	0	0	0	0	0	0	0	164931	201076	0
1651657477033	-20.008	-7.32	1012.6	0.28	-0.91	0.07	-303	57	-487.5	0	0	0	0	0	0	0	0	0	0	0	0	0	0	0	0	0	0	164925	201062	0
1651657477043	-15.616	-8.784	1016.992	0.14	-0.91	0.07	-301.5	58.5	-487.5	0	0	0	0	0	0	0	0	0	0	0	0	0	0	0	0	0	0	164913	201056	0
1651657477053	-20.984	-4.88	1012.6	-0.14	-0.91	0	-304.5	60	-484.5	0	0	0	0	0	0	0	0	0	0	0	0	0	0	0	0	0	0	164905	201062	0
1651657477063	-15.616	-7.32	1007.232	-0.14	-0.84	0	-304.5	61.5	-481.5	0	0	0	0	0	0	0	0	0	0	0	0	0	0	0	0	0	0	164941	201079	0
1651657477073	-22.936	-8.296	1011.624	0	-0.98	0.07	-301.5	58.5	-483	0	0	0	0	0	0	0	0	0	0	0	0	0	0	0	0	0	0	164990	201149	0
1651657477083	-19.52	-12.688	1015.528	0	-0.77	-0.07	-300	58.5	-484.5	0	0	0	0	0	0	0	0	0	0	0	0	0	0	0	0	0	0	165017	201196	0
1651657477093	-27.328	-17.568	1012.6	0.14	-1.05	-0.14	-306	64.5	-487.5	0	0	0	0	0	0	0	0	0	0	0	0	0	0	0	0	0	0	165040	201226	0
1651657477103	-9.272	-7.32	1014.552	0.07	-0.84	-0.14	-307.5	61.5	-486	0	0	0	0	0	0	0	0	0	0	0	0	0	0	0	0	0	0	165071	201267	0
1651657477113	-18.544	-6.344	1004.792	0.07	-0.84	-0.07	-306	61.5	-492	0	0	0	0	0	0	0	0	0	0	0	0	0	0	0	0	0	0	165106	201320	0
1651657477123	-10.248	-4.392	1024.312	0	-0.98	0	-307.5	63	-490.5	0	0	0	0	0	0	0	0	0	0	0	0	0	0	0	0	0	0	165123	201353	0
1651657477133	-22.448	-7.32	1008.208	-0.14	-0.98	-0.07	-303	57	-490.5	0	0	0	0	0	0	0	0	0	0	0	0	0	0	0	0	0	0	165135	201341	0
1651657477143	-23.912	-0.488	1005.768	0.07	-0.63	-0.28	-300	58.5	-490.5	0	0	0	0	0	0	0	0	0	0	0	0	0	0	0	0	0	0	165149	201360	0
1651657477153	-24.888	8.784	998.448	0.63	-0.7	-1.96	-301.5	64.5	-490.5	0	0	0	0	0	0	0	0	0	0	0	0	0	0	0	0	0	0	165121	201379	0
1651657477163	-19.52	-6.344	1010.16	0.77	-0.98	-1.96	-301.5	63	-490.5	0	0	0	0	0	0	0	0	0	0	0	0	0	0	0	0	0	0	165131	201409	0
1651657477173	-13.176	-3.904	1015.528	0.07	-1.26	-0.49	-309	64.5	-486	0	0	0	0	0	0	0	0	0	0	0	0	0	0	0	0	0	0	165187	201503	0
1651657477183	-14.64	6.344	1022.848	0.07	-1.19	-0.21	-307.5	66	-484.5	0	0	0	0	0	0	0	0	0	0	0	0	0	0	0	0	0	0	165226	201529	0
1651657477193	-14.152	8.296	1017.968	0.07	-0.91	-0.07	-304.5	61.5	-486	0	0	0	0	0	0	0	0	0	0	0	0	0	0	0	0	0	0	165252	201581	0
1651657477203	-20.008	9.76	1008.696	0.14	-0.91	0	-307.5	61.5	-486	0	0	0	0	0	0	0	0	0	0	0	0	0	0	0	0	0	0	165273	201589	0
1651657477213	-25.376	12.688	1015.04	0	-0.91	0.21	-304.5	60	-486	0	0	0	0	0	0	0	0	0	0	0	0	0	0	0	0	0	0	165252	201575	0
1651657477223	-20.984	6.344	1013.576	-0.07	-0.77	0.21	-306	58.5	-487.5	0	0	0	0	0	0	0	0	0	0	0	0	0	0	0	0	0	0	165226	201539	0
1651657477233	-24.888	0.488	1018.456	0	-1.05	0.28	-307.5	63	-486	0	0	0	0	0	0	0	0	0	0	0	0	0	0	0	0	0	0	165197	201469	0
1651657477243	-28.792	-12.2	1016.504	0.07	-0.98	0.21	-304.5	61.5	-484.5	0	0	0	0	0	0	0	0	0	0	0	0	0	0	0	0	0	0	165135	201419	0
1651657477253	-22.448	-17.08	1011.624	0	-0.91	0	-303	64.5	-486	0	0	0	0	0	0	0	0	0	0	0	0	0	0	0	0	0	0	165089	201369	0
1651657477263	-20.496	-17.08	1019.432	0	-1.19	0	-301.5	66	-487.5	0	0	0	0	0	0	0	0	0	0	0	0	0	0	0	0	0	0	165111	201368	0
1651657477273	-32.696	-17.08	1010.16	-0.07	-0.7	0.07	-301.5	57	-483	0	0	0	0	0	0	0	0	0	0	0	0	0	0	0	0	0	0	165119	201373	0
1651657477283	-21.96	-17.08	1017.968	0.28	-1.05	0	-307.5	55.5	-483	0	0	0	0	0	0	0	0	0	0	0	0	0	0	0	0	0	0	165149	201391	0
1651657477293	-17.568	-3.416	1009.672	-0.07	-0.84	0.07	-309	57	-484.5	0	0	0	0	0	0	0	0	0	0	0	0	0	0	0	0	0	0	165169	201409	0
1651657477303	-8.784	-1.952	1013.576	-0.14	-1.12	0	-301.5	55.5	-481.5	0	0	0	0	0	0	0	0	0	0	0	0	0	0	0	0	0	0	165182	201383	0
1651657477313	-14.64	3.416	1011.136	-0.07	-0.91	0	-301.5	55.5	-481.5	0	0	0	0	0	0	0	0	0	0	0	0	0	0	0	0	0	0	165204	201363	0
1651657477323	-17.08	11.224	1015.04	0	-0.98	0.07	-303	63	-484.5	0	0	0	0	0	0	0	0	0	0	0	0	0	0	0	0	0	0	165203	201369	0
1651657477333	-19.52	5.368	1011.624	0.07	-0.91	0.07	-306	61.5	-486	0	0	0	0	0	0	0	0	0	0	0	0	0	0	0	0	0	0	165238	201382	0
1651657477343	-14.152	8.784	1008.696	-0.07	-0.63	0.14	-303	61.5	-484.5	0	0	0	0	0	0	0	0	0	0	0	0	0	0	0	0	0	0	165272	201391	0
1651657477353	-17.568	7.32	1013.576	-0.14	-0.98	0.07	-304.5	60	-478.5	0	0	0	0	0	0	0	0	0	0	0	0	0	0	0	0	0	0	165249	201362	0
1651657477363	-19.52	-3.904	1016.016	0.07	-0.98	0.21	-307.5	57	-480	0	0	0	0	0	0	0	0	0	0	0	0	0	0	0	0	0	0	165211	201337	0
1651657477373	-32.696	-11.224	1011.624	0	-0.77	0.28	-310.5	57	-484.5	0	0	0	0	0	0	0	0	0	0	0	0	0	0	0	0	0	0	165189	201331	0
1651657477383	-22.936	-20.008	1014.552	-0.07	-0.91	0.21	-309	55.5	-481.5	0	0	0	0	0	0	0	0	0	0	0	0	0	0	0	0	0	0	165183	201316	0
1651657477393	-21.96	-14.152	1012.112	0	-0.84	0.14	-301.5	61.5	-483	0	0	0	0	0	0	0	0	0	0	0	0	0	0	0	0	0	0	165181	201317	0
1651657477403	-26.352	-9.272	1007.72	-0.21	-0.91	0.07	-298.5	63	-484.5	0	0	0	0	0	0	0	0	0	0	0	0	0	0	0	0	0	0	165184	201312	0
1651657477413	-22.448	-4.88	1014.552	0	-1.05	-0.14	-307.5	58.5	-484.5	0	0	0	0	0	0	0	0	0	0	0	0	0	0	0	0	0	0	165162	201315	0
1651657477423	-18.544	-3.416	1010.648	0.21	-0.84	-0.14	-310.5	63	-481.5	0	0	0	0	0	0	0	0	0	0	0	0	0	0	0	0	0	0	165136	201267	0
1651657477433	-8.296	10.248	1008.208	0.07	-0.84	0.07	-306	63	-478.5	0	0	0	0	0	0	0	0	0	0	0	0	0	0	0	0	0	0	165107	201250	0
1651657477443	-30.744	9.76	1023.824	-0.07	-1.33	0.07	-303	58.5	-484.5	0	0	0	0	0	0	0	0	0	0	0	0	0	0	0	0	0	0	165102	201247	0
1651657477453	-19.032	15.128	1021.384	0.07	-1.19	0.21	-304.5	60	-490.5	0	0	0	0	0	0	0	0	0	0	0	0	0	0	0	0	0	0	165124	201287	0
1651657477463	-30.256	2.928	1004.304	0	-0.21	0.14	-307.5	60	-487.5	0	0	0	0	0	0	0	0	0	0	0	0	0	0	0	0	0	0	165186	201328	0
1651657477473	-23.424	12.688	1011.136	0.14	-1.47	0.21	-304.5	58.5	-480	0	0	0	0	0	0	0	0	0	0	0	0	0	0	0	0	0	0	165236	201369	0
1651657477484	-13.176	-3.904	1022.36	0.14	-1.19	0.14	-301.5	60	-478.5	0	0	0	0	0	0	0	0	0	0	0	0	0	0	0	0	0	0	165252	201384	0
1651657477494	-19.032	-17.568	1016.504	0.14	-1.12	0	-300	61.5	-484.5	0	0	0	0	0	0	0	0	0	0	0	0	0	0	0	0	0	0	165270	201380	0
1651657477504	-33.184	-16.104	1019.432	0.21	-1.05	0	-306	64.5	-483	0	0	0	0	0	0	0	0	0	0	0	0	0	0	0	0	0	0	165300	201381	0
1651657477514	-30.256	-32.208	1009.672	0.28	-0.91	-0.77	-309	64.5	-481.5	0	0	0	0	0	0	0	0	0	0	0	0	0	0	0	0	0	0	165339	201394	0
1651657477524	-18.544	-16.104	1009.184	0.28	-0.91	-3.08	-307.5	63	-481.5	0	0	0	0	0	0	0	0	0	0	0	0	0	0	0	0	0	0	165366	201383	0
1651657477534	-24.4	-3.416	1017.48	-0.21	-0.98	-0.7	-306	63	-484.5	0	0	0	0	0	0	0	0	0	0	0	0	0	0	0	0	0	0	165356	201347	0
1651657477544	-14.64	-1.952	1011.136	0.14	-0.91	-0.07	-306	58.5	-487.5	0	0	0	0	0	0	0	0	0	0	0	0	0	0	0	0	0	0	165315	201273	0
1651657477554	-18.056	0.976	1016.992	0.07	-0.84	-0.07	-301.5	54	-487.5	0	0	0	0	0	0	0	0	0	0	0	0	0	0	0	0	0	0	165227	201161	0
1651657477564	-19.032	9.76	1015.04	0.07	-0.84	0	-304.5	57	-489	0	0	0	0	0	0	0	0	0	0	0	0	0	0	0	0	0	0	165119	201032	0
1651657477574	-20.008	5.368	1011.624	0.07	-0.63	-0.07	-307.5	60	-489	0	0	0	0	0	0	0	0	0	0	0	0	0	0	0	0	0	0	165049	200941	0
1651657477584	-15.128	9.76	1014.064	-0.07	-0.91	-0.07	-304.5	57	-484.5	0	0	0	0	0	0	0	0	0	0	0	0	0	0	0	0	0	0	164980	200858	0
1651657477594	-12.688	-1.464	1009.672	0	-0.84	0.14	-301.5	57	-484.5	0	0	0	0	0	0	0	0	0	0	0	0	0	0	0	0	0	0	164948	200755	0
1651657477604	-10.248	-1.464	1014.064	-0.07	-0.77	0.14	-307.5	60	-483	0	0	0	0	0	0	0	0	0	0	0	0	0	0	0	0	0	0	164853	200671	0
1651657477614	-28.304	-2.928	1006.744	-0.14	-0.77	0.14	-310.5	57	-483	0	0	0	0	0	0	0	0	0	0	0	0	0	0	0	0	0	0	164737	200573	0
1651657477624	-24.4	-6.344	1015.04	0	-0.77	0.07	-306	55.5	-484.5	0	0	0	0	0	0	0	0	0	0	0	0	0	0	0	0	0	0	164590	200485	0
1651657477634	-10.248	-12.688	1015.528	-0.07	-0.77	0.07	-307.5	61.5	-486	0	0	0	0	0	0	0	0	0	0	0	0	0	0	0	0	0	0	164481	200431	0
1651657477644	-15.616	0.488	1010.648	-0.07	-0.77	1.4	-306	61.5	-484.5	0	0	0	0	0	0	0	0	0	0	0	0	0	0	0	0	0	0	164427	200409	0
1651657477654	-26.352	-14.152	1013.088	-0.21	-0.91	1.47	-309	55.5	-480	0	0	0	0	0	0	0	0	0	0	0	0	0	0	0	0	0	0	164368	200401	0
1651657477664	-22.936	-3.904	1006.744	0.21	-0.98	0.21	-310.5	57	-480	0	0	0	0	0	0	0	0	0	0	0	0	0	0	0	0	0	0	164351	200395	0
1651657477674	-25.864	8.784	1018.456	0.28	-1.12	0.21	-303	60	-483	0	0	0	0	0	0	0	0	0	0	0	0	0	0	0	0	0	0	164352	200425	0
1651657477684	-21.472	1.952	1017.48	0.21	-1.12	0.07	-306	61.5	-484.5	0	0	0	0	0	0	0	0	0	0	0	0	0	0	0	0	0	0	164376	200437	0
1651657477694	-23.912	-21.472	1019.92	0.21	-1.12	-1.54	-307.5	58.5	-483	0	0	0	0	0	0	0	0	0	0	0	0	0	0	0	0	0	0	164430	200468	0
1651657477704	-16.104	-18.544	1013.576	0	-0.7	-3.08	-303	58.5	-480	0	0	0	0	0	0	0	0	0	0	0	0	0	0	0	0	0	0	164456	200495	0
1651657477714	-13.176	16.592	1011.624	-0.07	-0.91	0.35	-301.5	58.5	-484.5	0	0	0	0	0	0	0	0	0	0	0	0	0	0	0	0	0	0	164472	200510	0
1651657477724	-17.568	20.008	1013.088	0	-0.84	0.21	-303	57	-489	0	0	0	0	0	0	0	0	0	0	0	0	0	0	0	0	0	0	164455	200481	0
1651657477734	-18.544	-13.176	1018.456	0.07	-0.98	0.07	-309	58.5	-487.5	0	0	0	0	0	0	0	0	0	0	0	0	0	0	0	0	0	0	164402	200453	0
1651657477744	-35.136	-18.056	1000.888	-0.07	-0.84	0	-309	61.5	-487.5	0	0	0	0	0	0	0	0	0	0	0	0	0	0	0	0	0	0	164350	200434	0
1651657477754	-27.328	-6.344	1018.456	-0.07	-0.7	0.07	-307.5	61.5	-486	0	0	0	0	0	0	0	0	0	0	0	0	0	0	0	0	0	0	164313	200424	0
1651657477764	-24.4	-13.176	1015.04	-0.07	-0.91	0	-309	58.5	-480	0	0	0	0	0	0	0	0	0	0	0	0	0	0	0	0	0	0	164321	200476	0
1651657477774	-14.64	-8.784	1024.8	0.07	-0.63	0.14	-310.5	58.5	-486	0	0	0	0	0	0	0	0	0	0	0	0	0	0	0	0	0	0	164334	200529	0
1651657477784	-29.768	-8.296	1009.672	-0.21	-0.98	0.07	-307.5	58.5	-490.5	0	0	0	0	0	0	0	0	0	0	0	0	0	0	0	0	0	0	164307	200575	0
1651657477794	-19.032	0	1017.968	0.28	-0.91	0	-307.5	58.5	-490.5	0	0	0	0	0	0	0	0	0	0	0	0	0	0	0	0	0	0	164286	200574	0
1651657477804	-31.232	0.488	1013.576	0.14	-0.91	0.07	-306	54	-487.5	0	0	0	0	0	0	0	0	0	0	0	0	0	0	0	0	0	0	164272	200600	0
1651657477814	-17.568	-3.904	1013.088	-0.14	-0.84	0.07	-313.5	57	-487.5	0	0	0	0	0	0	0	0	0	0	0	0	0	0	0	0	0	0	164274	200589	0
1651657477824	-19.032	17.08	1015.04	0	-0.91	1.89	-312	60	-484.5	0	0	0	0	0	0	0	0	0	0	0	0	0	0	0	0	0	0	164285	200583	0
1651657477834	-20.496	3.416	1004.792	-0.21	-0.84	6.02	-310.5	60	-487.5	0	0	0	0	0	0	0	0	0	0	0	0	0	0	0	0	0	0	164269	200573	0
1651657477844	-21.472	20.496	1006.256	-0.21	-0.77	1.05	-307.5	60	-487.5	0	0	0	0	0	0	0	0	0	0	0	0	0	0	0	0	0	0	164253	200557	0
1651657477854	49.776	-52.216	994.056	0.42	-1.05	-0.07	-304.5	63	-483	0	0	0	0	0	0	0	0	0	0	0	0	0	0	0	0	0	0	164233	200510	0
1651657477864	-60.024	-4.88	1040.416	0	-1.12	0.49	-307.5	63	-484.5	0	0	0	0	0	0	0	0	0	0	0	0	0	0	0	0	0	0	164178	200452	0
1651657477874	-61.976	-27.816	999.912	-0.07	-0.07	0	-301.5	58.5	-483	0	0	0	0	0	0	0	0	0	0	0	0	0	0	0	0	0	0	164154	200393	0
1651657477884	-3.416	-0.488	1037.488	0.14	-1.82	0.56	-301.5	58.5	-483	0	0	0	0	0	0	0	0	0	0	0	0	0	0	0	0	0	0	164120	200360	0
1651657477894	-34.648	-13.176	1009.672	0	-0.56	-0.14	-303	63	-483	0	0	0	0	0	0	0	0	0	0	0	0	0	0	0	0	0	0	164098	200335	0
1651657477903	-13.664	-11.224	1048.224	-0.21	-1.75	-0.07	-301.5	66	-484.5	0	0	0	0	0	0	0	0	0	0	0	0	0	0	0	0	0	0	164063	200290	0
1651657477913	-23.424	1.464	986.248	0.35	-0.21	0.14	-307.5	64.5	-484.5	0	0	0	0	0	0	0	0	0	0	0	0	0	0	0	0	0	0	164065	200264	0
1651657477923	-10.736	-6.344	1035.536	0	-1.47	0.14	-304.5	63	-484.5	0	0	0	0	0	0	0	0	0	0	0	0	0	0	0	0	0	0	164067	200270	0
1651657477933	-23.912	-7.32	1010.16	-0.21	-0.56	0	-300	63	-486	0	0	0	0	0	0	0	0	0	0	0	0	0	0	0	0	0	0	164116	200285	0
1651657477943	-20.496	2.928	1012.112	0.07	-1.12	0	-304.5	64.5	-484.5	0	0	0	0	0	0	0	0	0	0	0	0	0	0	0	0	0	0	164165	200336	0
1651657477953	-6.832	-1.952	1021.384	0.07	-0.98	-0.14	-306	63	-483	0	0	0	0	0	0	0	0	0	0	0	0	0	0	0	0	0	0	164249	200367	0
1651657477963	-12.2	-17.568	1003.328	0	-0.77	-0.07	-304.5	60	-486	0	0	0	0	0	0	0	0	0	0	0	0	0	0	0	0	0	0	164320	200424	0
1651657477973	-19.032	-10.248	1026.752	0	-1.05	0	-307.5	60	-484.5	0	0	0	0	0	0	0	0	0	0	0	0	0	0	0	0	0	0	164396	200473	0
1651657477983	-22.936	-2.44	1009.672	0	-0.91	0.07	-310.5	66	-487.5	0	0	0	0	0	0	0	0	0	0	0	0	0	0	0	0	0	0	164437	200494	0
1651657477993	-27.328	2.928	1013.088	0.14	-0.84	0	-310.5	64.5	-492	0	0	0	0	0	0	0	0	0	0	0	0	0	0	0	0	0	0	164465	200503	0
1651657478003	-28.304	-4.392	1015.528	0.14	-0.98	0	-309	60	-490.5	0	0	0	0	0	0	0	0	0	0	0	0	0	0	0	0	0	0	164459	200511	0
1651657478013	-21.472	0.488	1007.72	0.14	-0.91	-0.14	-301.5	58.5	-487.5	0	0	0	0	0	0	0	0	0	0	0	0	0	0	0	0	0	0	164433	200505	0
1651657478023	-13.176	-7.808	1014.552	0	-0.77	0.07	-298.5	61.5	-483	0	0	0	0	0	0	0	0	0	0	0	0	0	0	0	0	0	0	164384	200490	0
1651657478033	-24.4	-0.488	1011.136	-0.21	-1.05	0.21	-303	61.5	-487.5	0	0	0	0	0	0	0	0	0	0	0	0	0	0	0	0	0	0	164312	200437	0
1651657478043	-28.304	2.44	1016.016	0.21	-0.84	0.14	-304.5	58.5	-489	0	0	0	0	0	0	0	0	0	0	0	0	0	0	0	0	0	0	164266	200408	0
1651657478053	-23.912	-0.488	1016.016	0.14	-1.05	0.14	-301.5	58.5	-483	0	0	0	0	0	0	0	0	0	0	0	0	0	0	0	0	0	0	164244	200377	0
1651657478063	-28.304	7.808	1011.624	0.07	-0.84	0	-304.5	60	-478.5	0	0	0	0	0	0	0	0	0	0	0	0	0	0	0	0	0	0	164237	200341	0
1651657478073	-18.544	2.928	1017.48	0.14	-1.05	-0.07	-309	55.5	-472.5	0	0	0	0	0	0	0	0	0	0	0	0	0	0	0	0	0	0	164262	200330	0
1651657478083	-14.64	4.88	1012.112	0.14	-0.84	0	-306	54	-472.5	0	0	0	0	0	0	0	0	0	0	0	0	0	0	0	0	0	0	164249	200327	0
1651657478093	-16.104	-0.488	1009.672	0.07	-0.84	0.07	-309	60	-480	0	0	0	0	0	0	0	0	0	0	0	0	0	0	0	0	0	0	164251	200301	0
1651657478103	-23.912	-2.928	1014.552	0.14	-1.19	0.07	-306	58.5	-484.5	0	0	0	0	0	0	0	0	0	0	0	0	0	0	0	0	0	0	164283	200283	0
1651657478113	-21.472	-11.224	1018.456	0.14	-0.98	0.14	-301.5	57	-483	0	0	0	0	0	0	0	0	0	0	0	0	0	0	0	0	0	0	164289	200310	0
1651657478123	-27.328	-15.128	1003.816	0.14	-0.91	-2.03	-304.5	55.5	-481.5	0	0	0	0	0	0	0	0	0	0	0	0	0	0	0	0	0	0	164300	200326	0
1651657478133	-22.936	2.928	1008.696	0.07	-0.98	-1.05	-307.5	55.5	-483	0	0	0	0	0	0	0	0	0	0	0	0	0	0	0	0	0	0	164294	200342	0
1651657478143	-23.912	-2.928	1013.088	0	-0.91	0	-309	67.5	-486	0	0	0	0	0	0	0	0	0	0	0	0	0	0	0	0	0	0	164310	200350	0
1651657478153	-24.4	-6.832	1015.04	0.21	-1.12	0.07	-310.5	61.5	-480	0	0	0	0	0	0	0	0	0	0	0	0	0	0	0	0	0	0	164308	200374	0
1651657478163	-23.912	-2.928	1015.528	0.14	-0.91	0.14	-307.5	58.5	-480	0	0	0	0	0	0	0	0	0	0	0	0	0	0	0	0	0	0	164269	200330	0
1651657478173	-20.496	-10.248	1015.04	-0.28	-0.84	0.07	-304.5	57	-486	0	0	0	0	0	0	0	0	0	0	0	0	0	0	0	0	0	0	164165	200260	0
1651657478183	-22.448	-0.488	1005.768	-0.07	-0.91	0	-307.5	54	-487.5	0	0	0	0	0	0	0	0	0	0	0	0	0	0	0	0	0	0	164118	200227	0
1651657478193	-17.568	2.44	1016.016	-0.07	-0.77	0	-306	58.5	-486	0	0	0	0	0	0	0	0	0	0	0	0	0	0	0	0	0	0	164090	200211	0
1651657478203	-9.272	-0.488	1011.624	-0.07	-0.7	-0.14	-309	61.5	-483	0	0	0	0	0	0	0	0	0	0	0	0	0	0	0	0	0	0	164049	200174	0
1651657478213	-19.032	6.344	1009.184	-0.63	-0.56	0.07	-304.5	63	-478.5	0	0	0	0	0	0	0	0	0	0	0	0	0	0	0	0	0	0	163999	200159	0
1651657478223	-30.256	22.936	1017.968	-0.49	-0.49	1.12	-301.5	66	-480	0	0	0	0	0	0	0	0	0	0	0	0	0	0	0	0	0	0	163994	200138	0
1651657478233	-17.08	11.224	1016.992	1.33	-1.54	-0.7	-306	60	-483	0	0	0	0	0	0	0	0	0	0	0	0	0	0	0	0	0	0	163996	200145	0
1651657478243	-24.888	-4.392	1021.384	0.21	-1.19	0.14	-304.5	55.5	-481.5	0	0	0	0	0	0	0	0	0	0	0	0	0	0	0	0	0	0	164036	200188	0
1651657478253	-38.064	-10.736	1011.624	-0.07	-0.84	0.07	-301.5	60	-484.5	0	0	0	0	0	0	0	0	0	0	0	0	0	0	0	0	0	0	164093	200255	0
1651657478263	-20.008	-7.808	1012.6	0.07	-0.98	0	-303	61.5	-486	0	0	0	0	0	0	0	0	0	0	0	0	0	0	0	0	0	0	164117	200281	0
1651657478273	-8.296	-4.392	1004.304	0.14	-0.84	0.07	-310.5	64.5	-487.5	0	0	0	0	0	0	0	0	0	0	0	0	0	0	0	0	0	0	164125	200297	0
1651657478283	-19.032	0.976	1009.672	0	-1.19	0.14	-310.5	61.5	-484.5	0	0	0	0	0	0	0	0	0	0	0	0	0	0	0	0	0	0	164083	200282	0
1651657478293	-17.568	-5.368	1010.648	0.07	-0.84	0.14	-307.5	61.5	-484.5	0	0	0	0	0	0	0	0	0	0	0	0	0	0	0	0	0	0	164036	200256	0
1651657478303	-20.984	-5.368	1013.088	0.07	-0.84	0.07	-309	63	-486	0	0	0	0	0	0	0	0	0	0	0	0	0	0	0	0	0	0	163988	200219	0
1651657478313	-20.496	-9.272	1010.648	0	-1.12	-0.07	-304.5	60	-486	0	0	0	0	0	0	0	0	0	0	0	0	0	0	0	0	0	0	163961	200228	0
1651657478324	-19.032	-12.688	1016.504	0.07	-0.98	-0.77	-303	63	-489	0	0	0	0	0	0	0	0	0	0	0	0	0	0	0	0	0	0	163935	200204	0
1651657478334	-17.08	9.76	1007.72	0	-0.7	-0.35	-303	66	-486	0	0	0	0	0	0	0	0	0	0	0	0	0	0	0	0	0	0	163939	200186	0
1651657478344	-25.864	0	1017.48	0	-1.12	0	-300	60	-483	0	0	0	0	0	0	0	0	0	0	0	0	0	0	0	0	0	0	163923	200188	0
1651657478354	-23.424	-2.44	1014.064	-0.14	-0.77	0.07	-303	58.5	-483	0	0	0	0	0	0	0	0	0	0	0	0	0	0	0	0	0	0	163925	200172	0
1651657478364	-24.4	-5.368	1008.696	-0.21	-0.56	0.07	-306	63	-486	0	0	0	0	0	0	0	0	0	0	0	0	0	0	0	0	0	0	163921	200151	0
1651657478374	-7.808	-25.376	1000.888	0.07	-0.91	0	-298.5	61.5	-489	0	0	0	0	0	0	0	0	0	0	0	0	0	0	0	0	0	0	163918	200143	0
1651657478384	-24.4	-12.688	996.496	0	-0.91	0.28	-295.5	60	-492	0	0	0	0	0	0	0	0	0	0	0	0	0	0	0	0	0	0	163878	200115	0
1651657478394	-20.984	-7.808	1024.8	0	-1.33	-0.07	-300	60	-489	0	0	0	0	0	0	0	0	0	0	0	0	0	0	0	0	0	0	163853	200091	0
1651657478404	-9.76	0	1001.864	0	-0.28	0	-303	58.5	-486	0	0	0	0	0	0	0	0	0	0	0	0	0	0	0	0	0	0	163859	200097	0
1651657478414	-28.304	-2.928	1027.728	0	-1.33	0.14	-303	57	-486	0	0	0	0	0	0	0	0	0	0	0	0	0	0	0	0	0	0	163845	200113	0
1651657478424	-30.256	-6.832	1011.624	-0.07	-0.49	0	-307.5	57	-486	0	0	0	0	0	0	0	0	0	0	0	0	0	0	0	0	0	0	163852	200149	0
1651657478434	-23.424	8.784	1015.04	0.21	-1.05	0.14	-303	58.5	-484.5	0	0	0	0	0	0	0	0	0	0	0	0	0	0	0	0	0	0	163862	200186	0
1651657478444	-26.84	-6.832	1018.456	-0.07	-0.77	-0.07	-300	61.5	-486	0	0	0	0	0	0	0	0	0	0	0	0	0	0	0	0	0	0	163914	200242	0
1651657478454	-15.128	-2.44	1015.528	0	-1.12	0	-304.5	64.5	-487.5	0	0	0	0	0	0	0	0	0	0	0	0	0	0	0	0	0	0	163919	200288	0
1651657478464	-20.008	-3.904	1014.064	0.14	-0.84	0.14	-310.5	63	-484.5	0	0	0	0	0	0	0	0	0	0	0	0	0	0	0	0	0	0	163947	200310	0
1651657478474	-25.376	-6.832	1013.088	0.14	-1.12	0.14	-309	63	-481.5	0	0	0	0	0	0	0	0	0	0	0	0	0	0	0	0	0	0	163934	200324	0
1651657478484	-20.984	0.976	1009.184	0.21	-0.98	0	-306	60	-481.5	0	0	0	0	0	0	0	0	0	0	0	0	0	0	0	0	0	0	163931	200331	0
1651657478494	-22.448	-23.912	1007.72	0.35	-1.12	-2.59	-306	55.5	-484.5	0	0	0	0	0	0	0	0	0	0	0	0	0	0	0	0	0	0	163949	200369	0
1651657478504	-16.104	-21.96	1014.064	0.14	-0.91	-3.22	-304.5	58.5	-480	0	0	0	0	0	0	0	0	0	0	0	0	0	0	0	0	0	0	163994	200424	0
1651657478514	-20.496	-8.296	1014.064	0	-0.63	-0.14	-304.5	63	-480	0	0	0	0	0	0	0	0	0	0	0	0	0	0	0	0	0	0	164040	200502	0
1651657478524	-24.4	12.2	1015.04	-0.07	-0.77	-0.14	-306	58.5	-480	0	0	0	0	0	0	0	0	0	0	0	0	0	0	0	0	0	0	164079	200525	0
1651657478534	-29.28	9.76	1003.816	-0.14	-0.77	0.28	-303	60	-481.5	0	0	0	0	0	0	0	0	0	0	0	0	0	0	0	0	0	0	164094	200526	0
1651657478544	-23.912	-11.224	1009.184	0.21	-0.91	0.14	-301.5	63	-484.5	0	0	0	0	0	0	0	0	0	0	0	0	0	0	0	0	0	0	164063	200516	0
1651657478554	-19.52	3.416	1019.92	0.07	-1.05	0.28	-306	63	-483	0	0	0	0	0	0	0	0	0	0	0	0	0	0	0	0	0	0	164005	200445	0
1651657478564	-13.176	4.392	1017.48	-0.21	-0.7	0.07	-303	60	-481.5	0	0	0	0	0	0	0	0	0	0	0	0	0	0	0	0	0	0	163956	200390	0
1651657478574	-20.008	-3.904	1013.576	-0.14	-0.77	0.14	-297	54	-484.5	0	0	0	0	0	0	0	0	0	0	0	0	0	0	0	0	0	0	163912	200378	0
1651657478584	-17.568	-14.152	1002.352	-0.14	-0.56	0.07	-298.5	57	-486	0	0	0	0	0	0	0	0	0	0	0	0	0	0	0	0	0	0	163884	200346	0
1651657478594	-14.64	-3.416	1022.36	0	-0.84	0.14	-301.5	61.5	-484.5	0	0	0	0	0	0	0	0	0	0	0	0	0	0	0	0	0	0	163870	200345	0
1651657478604	-21.96	-1.464	1012.6	-0.07	-0.77	0.07	-306	61.5	-489	0	0	0	0	0	0	0	0	0	0	0	0	0	0	0	0	0	0	163867	200370	0
1651657478614	-10.736	5.856	1009.184	0.07	-0.77	0.35	-304.5	61.5	-486	0	0	0	0	0	0	0	0	0	0	0	0	0	0	0	0	0	0	163931	200417	0
1651657478624	-30.744	-8.784	1004.792	0	-0.84	2.24	-303	60	-484.5	0	0	0	0	0	0	0	0	0	0	0	0	0	0	0	0	0	0	163961	200444	0
1651657478634	-23.424	-6.832	1023.824	0.07	-1.33	0.49	-304.5	61.5	-480	0	0	0	0	0	0	0	0	0	0	0	0	0	0	0	0	0	0	164023	200491	0
1651657478644	-17.08	2.928	1014.064	-0.14	-0.77	0.49	-304.5	66	-478.5	0	0	0	0	0	0	0	0	0	0	0	0	0	0	0	0	0	0	164014	200474	0
1651657478654	-16.592	2.44	1017.48	-0.28	-1.05	2.52	-303	64.5	-484.5	0	0	0	0	0	0	0	0	0	0	0	0	0	0	0	0	0	0	164000	200465	0
1651657478664	-24.888	18.056	1011.624	0.21	-0.84	0.91	-306	61.5	-486	0	0	0	0	0	0	0	0	0	0	0	0	0	0	0	0	0	0	163995	200438	0
1651657478674	-19.032	9.76	1010.16	0.21	-0.98	-0.77	-306	57	-484.5	0	0	0	0	0	0	0	0	0	0	0	0	0	0	0	0	0	0	163988	200429	0
1651657478684	-16.104	-11.224	1005.768	-0.07	-0.91	1.05	-304.5	58.5	-486	0	0	0	0	0	0	0	0	0	0	0	0	0	0	0	0	0	0	163988	200392	0
1651657478694	-7.32	-8.296	1012.6	0.21	-1.05	-0.28	-306	63	-486	0	0	0	0	0	0	0	0	0	0	0	0	0	0	0	0	0	0	163958	200326	0
1651657478704	-29.28	3.416	1036.024	0.21	-1.19	0.07	-310.5	67.5	-489	0	0	0	0	0	0	0	0	0	0	0	0	0	0	0	0	0	0	163938	200336	0
1651657478714	-37.576	0.976	1002.352	-0.14	-0.28	0	-310.5	67.5	-490.5	0	0	0	0	0	0	0	0	0	0	0	0	0	0	0	0	0	0	163924	200336	0
1651657478724	-17.08	-11.224	1018.944	0	-1.12	-0.21	-303	63	-487.5	0	0	0	0	0	0	0	0	0	0	0	0	0	0	0	0	0	0	163901	200307	0
1651657478734	-24.888	-28.304	1001.376	0.07	-0.7	0.28	-303	57	-486	0	0	0	0	0	0	0	0	0	0	0	0	0	0	0	0	0	0	163869	200276	0
1651657478744	-14.64	-11.712	1006.256	0	-0.77	0.28	-307.5	57	-484.5	0	0	0	0	0	0	0	0	0	0	0	0	0	0	0	0	0	0	163822	200228	0
1651657478754	-21.472	-3.416	1026.752	0.07	-1.26	0.14	-309	58.5	-483	0	0	0	0	0	0	0	0	0	0	0	0	0	0	0	0	0	0	163788	200215	0
1651657478764	-22.936	3.416	1018.456	0.07	-0.84	0.07	-304.5	55.5	-483	0	0	0	0	0	0	0	0	0	0	0	0	0	0	0	0	0	0	163743	200199	0
1651657478774	-19.52	-4.88	1008.208	-0.07	-0.84	0.07	-306	60	-483	0	0	0	0	0	0	0	0	0	0	0	0	0	0	0	0	0	0	163737	200182	0
1651657478784	-7.808	-2.928	1013.088	-0.21	-0.98	0	-304.5	58.5	-487.5	0	0	0	0	0	0	0	0	0	0	0	0	0	0	0	0	0	0	163710	200174	0
1651657478794	-11.712	-1.952	1010.16	0.21	-0.7	-0.14	-304.5	58.5	-481.5	0	0	0	0	0	0	0	0	0	0	0	0	0	0	0	0	0	0	163697	200152	0
1651657478804	-15.128	3.904	1002.84	0.14	-0.63	0.07	-304.5	63	-478.5	0	0	0	0	0	0	0	0	0	0	0	0	0	0	0	0	0	0	163689	200131	0
1651657478814	-19.032	-4.88	1014.064	-0.14	-0.98	0.07	-298.5	61.5	-480	0	0	0	0	0	0	0	0	0	0	0	0	0	0	0	0	0	0	163673	200108	0
1651657478824	-26.84	3.904	1007.232	0	-0.7	0.14	-300	61.5	-480	0	0	0	0	0	0	0	0	0	0	0	0	0	0	0	0	0	0	163667	200084	0
1651657478834	-22.448	-9.76	1028.216	0	-1.4	0.07	-304.5	61.5	-486	0	0	0	0	0	0	0	0	0	0	0	0	0	0	0	0	0	0	163664	200041	0
1651657478844	-25.376	4.88	1004.304	0.07	-0.7	0	-301.5	60	-490.5	0	0	0	0	0	0	0	0	0	0	0	0	0	0	0	0	0	0	163698	200046	0
1651657478854	-21.96	-1.952	1012.112	0	-0.84	-0.14	-303	57	-483	0	0	0	0	0	0	0	0	0	0	0	0	0	0	0	0	0	0	163734	200039	0
1651657478864	-16.104	-4.88	1016.992	0.07	-1.05	0	-306	57	-481.5	0	0	0	0	0	0	0	0	0	0	0	0	0	0	0	0	0	0	163763	200048	0
1651657478874	-15.616	-5.368	1018.944	0	-0.84	0	-310.5	63	-484.5	0	0	0	0	0	0	0	0	0	0	0	0	0	0	0	0	0	0	163781	200035	0
1651657478884	-18.056	-1.464	1016.504	-0.07	-0.91	0.21	-310.5	58.5	-484.5	0	0	0	0	0	0	0	0	0	0	0	0	0	0	0	0	0	0	163782	200033	0
1651657478894	-19.032	6.344	1013.088	-0.14	-0.91	0.21	-306	57	-483	0	0	0	0	0	0	0	0	0	0	0	0	0	0	0	0	0	0	163753	199989	0
1651657478904	-22.448	-0.976	1011.624	-0.14	-0.77	0.14	-304.5	61.5	-484.5	0	0	0	0	0	0	0	0	0	0	0	0	0	0	0	0	0	0	163699	199963	0
1651657478914	-20.008	0.488	1014.552	0.14	-1.19	0.42	-304.5	61.5	-481.5	0	0	0	0	0	0	0	0	0	0	0	0	0	0	0	0	0	0	163684	199936	0
1651657478924	-21.472	-15.128	1013.576	0.07	-0.98	0.14	-304.5	61.5	-484.5	0	0	0	0	0	0	0	0	0	0	0	0	0	0	0	0	0	0	163675	199940	0
1651657478934	-14.64	-10.736	1007.232	0.28	-0.84	0	-309	63	-492	0	0	0	0	0	0	0	0	0	0	0	0	0	0	0	0	0	0	163673	199940	0
1651657478944	-25.376	-0.488	1008.696	0.07	-0.91	0.07	-309	61.5	-486	0	0	0	0	0	0	0	0	0	0	0	0	0	0	0	0	0	0	163708	199965	0
1651657478954	-21.472	-1.952	1014.552	0	-0.98	0	-309	60	-484.5	0	0	0	0	0	0	0	0	0	0	0	0	0	0	0	0	0	0	163731	199991	0
1651657478964	-14.64	-7.32	1008.208	0.07	-1.05	0.14	-310.5	58.5	-486	0	0	0	0	0	0	0	0	0	0	0	0	0	0	0	0	0	0	163733	199994	0
1651657478974	-25.864	-1.952	1009.672	0	-0.98	0.14	-306	58.5	-480	0	0	0	0	0	0	0	0	0	0	0	0	0	0	0	0	0	0	163740	200007	0
1651657478984	-21.96	-7.32	1014.552	0.07	-0.84	0.21	-300	58.5	-481.5	0	0	0	0	0	0	0	0	0	0	0	0	0	0	0	0	0	0	163729	199986	0
1651657478994	-22.448	-2.44	1019.92	0.07	-0.91	0.14	-304.5	57	-487.5	0	0	0	0	0	0	0	0	0	0	0	0	0	0	0	0	0	0	163720	199986	0
1651657479004	-25.864	-7.808	1007.232	0.07	-0.91	0	-309	55.5	-487.5	0	0	0	0	0	0	0	0	0	0	0	0	0	0	0	0	0	0	163679	199974	0
1651657479014	-21.472	-4.392	1017.968	0.07	-0.91	0.07	-304.5	57	-484.5	0	0	0	0	0	0	0	0	0	0	0	0	0	0	0	0	0	0	163647	199978	0
1651657479024	-23.424	-12.688	1006.744	-0.14	-0.7	-0.07	-297	60	-481.5	0	0	0	0	0	0	0	0	0	0	0	0	0	0	0	0	0	0	163633	200007	0
1651657479034	-14.64	-5.368	1014.552	0.28	-0.98	0	-301.5	58.5	-475.5	0	0	0	0	0	0	0	0	0	0	0	0	0	0	0	0	0	0	163633	200038	0
1651657479044	-21.96	-3.416	1009.672	0.14	-0.7	0.07	-307.5	58.5	-480	0	0	0	0	0	0	0	0	0	0	0	0	0	0	0	0	0	0	163619	199993	0
1651657479054	-24.4	0	1012.112	-0.07	-1.05	0.07	-303	61.5	-483	0	0	0	0	0	0	0	0	0	0	0	0	0	0	0	0	0	0	163630	200038	0
1651657479064	-20.008	-2.44	1014.064	0	-0.98	0.14	-304.5	58.5	-481.5	0	0	0	0	0	0	0	0	0	0	0	0	0	0	0	0	0	0	163629	200026	0
1651657479074	-16.104	-3.416	1011.624	0	-0.84	0.14	-310.5	58.5	-483	0	0	0	0	0	0	0	0	0	0	0	0	0	0	0	0	0	0	163602	199998	0
1651657479084	-20.008	12.688	1008.208	0.07	-0.77	0.07	-307.5	58.5	-483	0	0	0	0	0	0	0	0	0	0	0	0	0	0	0	0	0	0	163561	199942	0
